#
# Results on Tuesday November 03 2015 20:13:52 UTC.
# USER AGENT: Mozilla/5.0 (Windows NT 10.0; WOW64) AppleWebKit/537.36 (KHTML, like Gecko) Chrome/46.0.2490.80 Safari/537.36
# Design number was non-random = 0
#
# Columns below this comment are as follows:
# 1. Time results were received.
# 2. MD5 hash of participant's IP address.
# 3. Controller name.
# 4. Item number.
# 5. Element number.
# 6. Type.
# 7. Group.
# 8. Field name.
# 9. Field value.
1446581632,a753b22a94bade04f1b3e2594a50fa73,Form,2,0,intro,NULL,consentanswer,ptP,T
1446581632,a753b22a94bade04f1b3e2594a50fa73,Form,2,0,intro,NULL,_REACTION_TIME_,6182
1446581632,a753b22a94bade04f1b3e2594a50fa73,Form,3,0,questionnaire,NULL,write_something,
1446581632,a753b22a94bade04f1b3e2594a50fa73,Form,3,0,questionnaire,NULL,NatLang,eng
1446581632,a753b22a94bade04f1b3e2594a50fa73,Form,3,0,questionnaire,NULL,disorder,disorderno
1446581632,a753b22a94bade04f1b3e2594a50fa73,Form,3,0,questionnaire,NULL,_REACTION_TIME_,6876
1446581632,a753b22a94bade04f1b3e2594a50fa73,Form,4,0,headphones,NULL,headphonebrand,Apple
1446581632,a753b22a94bade04f1b3e2594a50fa73,Form,4,0,headphones,NULL,headphonemodel,MD827LLA
1446581632,a753b22a94bade04f1b3e2594a50fa73,Form,4,0,headphones,NULL,headphoneyesno,headphoneyes
1446581632,a753b22a94bade04f1b3e2594a50fa73,Form,4,0,headphones,NULL,_REACTION_TIME_,40568
# Columns below this comment are as follows:
# 1. Time results were received.
# 2. MD5 hash of participant's IP address.
# 3. Controller name.
# 4. Item number.
# 5. Element number.
# 6. Type.
# 7. Group.
# 8. Question (NULL if none).
# 9. Answer.
# 10. Whether or not answer was correct (NULL if N/A).
# 11. Time taken to answer.
1446581632,a753b22a94bade04f1b3e2594a50fa73,Trial,23,0,pnt_b_18,NULL,&nbsp;&nbsp;&nbsp;&nbsp;click on the sound,P,NULL,7591
1446581632,a753b22a94bade04f1b3e2594a50fa73,Trial,24,0,pnt_sp_1,NULL,&nbsp;&nbsp;&nbsp;&nbsp;click on the sound,P,NULL,1851
1446581632,a753b22a94bade04f1b3e2594a50fa73,Trial,22,0,pnt_b_1,NULL,&nbsp;&nbsp;&nbsp;&nbsp;click on the sound,P,NULL,2388
1446581632,a753b22a94bade04f1b3e2594a50fa73,Trial,25,0,pnt_sp_18,NULL,&nbsp;&nbsp;&nbsp;&nbsp;click on the sound,T,NULL,1255
1446581632,a753b22a94bade04f1b3e2594a50fa73,Trial,29,0,pto_b_18,NULL,&nbsp;&nbsp;&nbsp;&nbsp;click on the sound,T,NULL,1048
1446581632,a753b22a94bade04f1b3e2594a50fa73,Trial,28,0,pto_b_1,NULL,&nbsp;&nbsp;&nbsp;&nbsp;click on the sound,P,NULL,1047
1446581632,a753b22a94bade04f1b3e2594a50fa73,Trial,27,0,pto_sp_18,NULL,&nbsp;&nbsp;&nbsp;&nbsp;click on the sound,T,NULL,1016
1446581632,a753b22a94bade04f1b3e2594a50fa73,Trial,26,0,pto_sp_1,NULL,&nbsp;&nbsp;&nbsp;&nbsp;click on the sound,P,NULL,981
1446581632,a753b22a94bade04f1b3e2594a50fa73,Trial,52,0,t_sp_5,NULL,NULL,P,NULL,982
1446581632,a753b22a94bade04f1b3e2594a50fa73,Trial,50,0,t_b_18,NULL,NULL,T,NULL,873
1446581632,a753b22a94bade04f1b3e2594a50fa73,Trial,31,0,t_b_5,NULL,NULL,P,NULL,1344
1446581632,a753b22a94bade04f1b3e2594a50fa73,Trial,45,0,t_b_5,NULL,NULL,P,NULL,833
1446581632,a753b22a94bade04f1b3e2594a50fa73,Trial,37,0,t_sp_1,NULL,NULL,P,NULL,1190
1446581632,a753b22a94bade04f1b3e2594a50fa73,Trial,40,0,t_sp_7,NULL,NULL,P,NULL,1126
1446581632,a753b22a94bade04f1b3e2594a50fa73,Trial,44,0,t_b_1,NULL,NULL,P,NULL,909
1446581632,a753b22a94bade04f1b3e2594a50fa73,Trial,38,0,t_sp_5,NULL,NULL,P,NULL,941
1446581632,a753b22a94bade04f1b3e2594a50fa73,Trial,49,0,t_b_9,NULL,NULL,P,NULL,930
1446581632,a753b22a94bade04f1b3e2594a50fa73,Trial,34,0,t_b_8,NULL,NULL,P,NULL,1199
1446581632,a753b22a94bade04f1b3e2594a50fa73,Trial,47,0,t_b_7,NULL,NULL,P,NULL,930
1446581632,a753b22a94bade04f1b3e2594a50fa73,Trial,55,0,t_sp_8,NULL,NULL,P,NULL,1227
1446581632,a753b22a94bade04f1b3e2594a50fa73,Trial,46,0,t_b_6,NULL,NULL,P,NULL,1703
1446581632,a753b22a94bade04f1b3e2594a50fa73,Trial,30,0,t_b_1,NULL,NULL,P,NULL,994
1446581632,a753b22a94bade04f1b3e2594a50fa73,Trial,56,0,t_sp_9,NULL,NULL,T,NULL,1608
1446581632,a753b22a94bade04f1b3e2594a50fa73,Trial,36,0,t_b_18,NULL,NULL,T,NULL,1221
1446581632,a753b22a94bade04f1b3e2594a50fa73,Trial,51,0,t_sp_1,NULL,NULL,P,NULL,1256
1446581632,a753b22a94bade04f1b3e2594a50fa73,Trial,48,0,t_b_8,NULL,NULL,P,NULL,1031
1446581632,a753b22a94bade04f1b3e2594a50fa73,Trial,57,0,t_sp_18,NULL,NULL,T,NULL,1110
1446581632,a753b22a94bade04f1b3e2594a50fa73,Trial,41,0,t_sp_8,NULL,NULL,T,NULL,1323
1446581632,a753b22a94bade04f1b3e2594a50fa73,Trial,54,0,t_sp_7,NULL,NULL,T,NULL,1274
1446581632,a753b22a94bade04f1b3e2594a50fa73,Trial,43,0,t_sp_18,NULL,NULL,T,NULL,870
1446581632,a753b22a94bade04f1b3e2594a50fa73,Trial,42,0,t_sp_9,NULL,NULL,T,NULL,839
1446581632,a753b22a94bade04f1b3e2594a50fa73,Trial,33,0,t_b_7,NULL,NULL,T,NULL,1562
1446581632,a753b22a94bade04f1b3e2594a50fa73,Trial,35,0,t_b_9,NULL,NULL,T,NULL,1337
1446581632,a753b22a94bade04f1b3e2594a50fa73,Trial,53,0,t_sp_6,NULL,NULL,P,NULL,955
1446581632,a753b22a94bade04f1b3e2594a50fa73,Trial,32,0,t_b_6,NULL,NULL,T,NULL,844
1446581632,a753b22a94bade04f1b3e2594a50fa73,Trial,39,0,t_sp_6,NULL,NULL,T,NULL,2688
1446581632,a753b22a94bade04f1b3e2594a50fa73,Trial,43,0,t_sp_18,NULL,NULL,T,NULL,1170
1446581632,a753b22a94bade04f1b3e2594a50fa73,Trial,36,0,t_b_18,NULL,NULL,T,NULL,1295
1446581632,a753b22a94bade04f1b3e2594a50fa73,Trial,48,0,t_b_8,NULL,NULL,P,NULL,1153
1446581632,a753b22a94bade04f1b3e2594a50fa73,Trial,52,0,t_sp_5,NULL,NULL,P,NULL,2180
1446581632,a753b22a94bade04f1b3e2594a50fa73,Trial,44,0,t_b_1,NULL,NULL,P,NULL,1058
1446581632,a753b22a94bade04f1b3e2594a50fa73,Trial,38,0,t_sp_5,NULL,NULL,P,NULL,837
1446581632,a753b22a94bade04f1b3e2594a50fa73,Trial,31,0,t_b_5,NULL,NULL,P,NULL,782
1446581632,a753b22a94bade04f1b3e2594a50fa73,Trial,34,0,t_b_8,NULL,NULL,P,NULL,2029
1446581632,a753b22a94bade04f1b3e2594a50fa73,Trial,42,0,t_sp_9,NULL,NULL,P,NULL,2324
1446581632,a753b22a94bade04f1b3e2594a50fa73,Trial,30,0,t_b_1,NULL,NULL,P,NULL,2699
1446581632,a753b22a94bade04f1b3e2594a50fa73,Trial,51,0,t_sp_1,NULL,NULL,P,NULL,1995
1446581632,a753b22a94bade04f1b3e2594a50fa73,Trial,53,0,t_sp_6,NULL,NULL,P,NULL,1217
1446581632,a753b22a94bade04f1b3e2594a50fa73,Trial,46,0,t_b_6,NULL,NULL,P,NULL,961
1446581632,a753b22a94bade04f1b3e2594a50fa73,Trial,41,0,t_sp_8,NULL,NULL,P,NULL,1124
1446581632,a753b22a94bade04f1b3e2594a50fa73,Trial,49,0,t_b_9,NULL,NULL,P,NULL,875
1446581632,a753b22a94bade04f1b3e2594a50fa73,Trial,35,0,t_b_9,NULL,NULL,T,NULL,1427
1446581632,a753b22a94bade04f1b3e2594a50fa73,Trial,55,0,t_sp_8,NULL,NULL,T,NULL,916
1446581632,a753b22a94bade04f1b3e2594a50fa73,Trial,32,0,t_b_6,NULL,NULL,P,NULL,865
1446581632,a753b22a94bade04f1b3e2594a50fa73,Trial,50,0,t_b_18,NULL,NULL,P,NULL,670
1446581632,a753b22a94bade04f1b3e2594a50fa73,Trial,45,0,t_b_5,NULL,NULL,P,NULL,828
1446581632,a753b22a94bade04f1b3e2594a50fa73,Trial,56,0,t_sp_9,NULL,NULL,T,NULL,1942
1446581632,a753b22a94bade04f1b3e2594a50fa73,Trial,39,0,t_sp_6,NULL,NULL,P,NULL,1198
1446581632,a753b22a94bade04f1b3e2594a50fa73,Trial,33,0,t_b_7,NULL,NULL,P,NULL,854
1446581632,a753b22a94bade04f1b3e2594a50fa73,Trial,40,0,t_sp_7,NULL,NULL,P,NULL,1449
1446581632,a753b22a94bade04f1b3e2594a50fa73,Trial,54,0,t_sp_7,NULL,NULL,P,NULL,1007
1446581632,a753b22a94bade04f1b3e2594a50fa73,Trial,57,0,t_sp_18,NULL,NULL,T,NULL,1366
1446581632,a753b22a94bade04f1b3e2594a50fa73,Trial,37,0,t_sp_1,NULL,NULL,P,NULL,1229
1446581632,a753b22a94bade04f1b3e2594a50fa73,Trial,47,0,t_b_7,NULL,NULL,P,NULL,1031
1446581632,a753b22a94bade04f1b3e2594a50fa73,Trial,37,0,t_sp_1,NULL,NULL,P,NULL,1308
1446581632,a753b22a94bade04f1b3e2594a50fa73,Trial,42,0,t_sp_9,NULL,NULL,T,NULL,1346
1446581632,a753b22a94bade04f1b3e2594a50fa73,Trial,30,0,t_b_1,NULL,NULL,P,NULL,1016
1446581632,a753b22a94bade04f1b3e2594a50fa73,Trial,57,0,t_sp_18,NULL,NULL,T,NULL,1304
1446581632,a753b22a94bade04f1b3e2594a50fa73,Trial,48,0,t_b_8,NULL,NULL,P,NULL,1351
1446581632,a753b22a94bade04f1b3e2594a50fa73,Trial,34,0,t_b_8,NULL,NULL,P,NULL,833
1446581632,a753b22a94bade04f1b3e2594a50fa73,Trial,41,0,t_sp_8,NULL,NULL,P,NULL,1202
1446581632,a753b22a94bade04f1b3e2594a50fa73,Trial,33,0,t_b_7,NULL,NULL,P,NULL,999
1446581632,a753b22a94bade04f1b3e2594a50fa73,Trial,38,0,t_sp_5,NULL,NULL,P,NULL,1045
1446581632,a753b22a94bade04f1b3e2594a50fa73,Trial,40,0,t_sp_7,NULL,NULL,P,NULL,1079
1446581632,a753b22a94bade04f1b3e2594a50fa73,Trial,43,0,t_sp_18,NULL,NULL,T,NULL,1187
1446581632,a753b22a94bade04f1b3e2594a50fa73,Trial,47,0,t_b_7,NULL,NULL,P,NULL,1199
1446581632,a753b22a94bade04f1b3e2594a50fa73,Trial,53,0,t_sp_6,NULL,NULL,P,NULL,1235
1446581632,a753b22a94bade04f1b3e2594a50fa73,Trial,32,0,t_b_6,NULL,NULL,P,NULL,913
1446581632,a753b22a94bade04f1b3e2594a50fa73,Trial,36,0,t_b_18,NULL,NULL,T,NULL,1120
1446581632,a753b22a94bade04f1b3e2594a50fa73,Trial,44,0,t_b_1,NULL,NULL,P,NULL,1413
1446581632,a753b22a94bade04f1b3e2594a50fa73,Trial,45,0,t_b_5,NULL,NULL,P,NULL,868
1446581632,a753b22a94bade04f1b3e2594a50fa73,Trial,56,0,t_sp_9,NULL,NULL,T,NULL,1051
1446581632,a753b22a94bade04f1b3e2594a50fa73,Trial,31,0,t_b_5,NULL,NULL,P,NULL,976
1446581632,a753b22a94bade04f1b3e2594a50fa73,Trial,46,0,t_b_6,NULL,NULL,P,NULL,965
1446581632,a753b22a94bade04f1b3e2594a50fa73,Trial,55,0,t_sp_8,NULL,NULL,T,NULL,1094
1446581632,a753b22a94bade04f1b3e2594a50fa73,Trial,50,0,t_b_18,NULL,NULL,T,NULL,1215
1446581632,a753b22a94bade04f1b3e2594a50fa73,Trial,51,0,t_sp_1,NULL,NULL,P,NULL,1009
1446581632,a753b22a94bade04f1b3e2594a50fa73,Trial,39,0,t_sp_6,NULL,NULL,P,NULL,1118
1446581632,a753b22a94bade04f1b3e2594a50fa73,Trial,54,0,t_sp_7,NULL,NULL,P,NULL,1016
1446581632,a753b22a94bade04f1b3e2594a50fa73,Trial,52,0,t_sp_5,NULL,NULL,P,NULL,947
1446581632,a753b22a94bade04f1b3e2594a50fa73,Trial,49,0,t_b_9,NULL,NULL,T,NULL,1768
1446581632,a753b22a94bade04f1b3e2594a50fa73,Trial,35,0,t_b_9,NULL,NULL,T,NULL,1259
1446581632,a753b22a94bade04f1b3e2594a50fa73,Trial,57,0,t_sp_18,NULL,NULL,T,NULL,1310
1446581632,a753b22a94bade04f1b3e2594a50fa73,Trial,51,0,t_sp_1,NULL,NULL,P,NULL,1361
1446581632,a753b22a94bade04f1b3e2594a50fa73,Trial,49,0,t_b_9,NULL,NULL,P,NULL,1177
1446581632,a753b22a94bade04f1b3e2594a50fa73,Trial,44,0,t_b_1,NULL,NULL,P,NULL,1108
1446581632,a753b22a94bade04f1b3e2594a50fa73,Trial,42,0,t_sp_9,NULL,NULL,T,NULL,1329
1446581632,a753b22a94bade04f1b3e2594a50fa73,Trial,37,0,t_sp_1,NULL,NULL,P,NULL,1177
1446581632,a753b22a94bade04f1b3e2594a50fa73,Trial,54,0,t_sp_7,NULL,NULL,T,NULL,1422
1446581632,a753b22a94bade04f1b3e2594a50fa73,Trial,40,0,t_sp_7,NULL,NULL,P,NULL,1161
1446581632,a753b22a94bade04f1b3e2594a50fa73,Trial,33,0,t_b_7,NULL,NULL,P,NULL,1184
1446581632,a753b22a94bade04f1b3e2594a50fa73,Trial,56,0,t_sp_9,NULL,NULL,T,NULL,1157
1446581632,a753b22a94bade04f1b3e2594a50fa73,Trial,38,0,t_sp_5,NULL,NULL,P,NULL,1568
1446581632,a753b22a94bade04f1b3e2594a50fa73,Trial,46,0,t_b_6,NULL,NULL,P,NULL,1178
1446581632,a753b22a94bade04f1b3e2594a50fa73,Trial,50,0,t_b_18,NULL,NULL,T,NULL,1239
1446581632,a753b22a94bade04f1b3e2594a50fa73,Trial,45,0,t_b_5,NULL,NULL,P,NULL,1030
1446581632,a753b22a94bade04f1b3e2594a50fa73,Trial,31,0,t_b_5,NULL,NULL,P,NULL,954
1446581632,a753b22a94bade04f1b3e2594a50fa73,Trial,52,0,t_sp_5,NULL,NULL,P,NULL,1357
1446581632,a753b22a94bade04f1b3e2594a50fa73,Trial,48,0,t_b_8,NULL,NULL,P,NULL,1064
1446581632,a753b22a94bade04f1b3e2594a50fa73,Trial,32,0,t_b_6,NULL,NULL,P,NULL,844
1446581632,a753b22a94bade04f1b3e2594a50fa73,Trial,39,0,t_sp_6,NULL,NULL,P,NULL,1166
1446581632,a753b22a94bade04f1b3e2594a50fa73,Trial,47,0,t_b_7,NULL,NULL,P,NULL,840
1446581632,a753b22a94bade04f1b3e2594a50fa73,Trial,53,0,t_sp_6,NULL,NULL,P,NULL,947
1446581632,a753b22a94bade04f1b3e2594a50fa73,Trial,35,0,t_b_9,NULL,NULL,T,NULL,1279
1446581632,a753b22a94bade04f1b3e2594a50fa73,Trial,55,0,t_sp_8,NULL,NULL,T,NULL,1857
1446581632,a753b22a94bade04f1b3e2594a50fa73,Trial,30,0,t_b_1,NULL,NULL,P,NULL,1225
1446581632,a753b22a94bade04f1b3e2594a50fa73,Trial,36,0,t_b_18,NULL,NULL,T,NULL,1272
1446581632,a753b22a94bade04f1b3e2594a50fa73,Trial,41,0,t_sp_8,NULL,NULL,P,NULL,1816
1446581632,a753b22a94bade04f1b3e2594a50fa73,Trial,43,0,t_sp_18,NULL,NULL,T,NULL,2112
1446581632,a753b22a94bade04f1b3e2594a50fa73,Trial,34,0,t_b_8,NULL,NULL,T,NULL,1769
1446581632,a753b22a94bade04f1b3e2594a50fa73,Trial,47,0,t_b_7,NULL,NULL,P,NULL,1504
1446581632,a753b22a94bade04f1b3e2594a50fa73,Trial,37,0,t_sp_1,NULL,NULL,P,NULL,2565
1446581632,a753b22a94bade04f1b3e2594a50fa73,Trial,56,0,t_sp_9,NULL,NULL,T,NULL,1584
1446581632,a753b22a94bade04f1b3e2594a50fa73,Trial,34,0,t_b_8,NULL,NULL,P,NULL,1122
1446581632,a753b22a94bade04f1b3e2594a50fa73,Trial,44,0,t_b_1,NULL,NULL,P,NULL,1485
1446581632,a753b22a94bade04f1b3e2594a50fa73,Trial,43,0,t_sp_18,NULL,NULL,T,NULL,1473
1446581632,a753b22a94bade04f1b3e2594a50fa73,Trial,32,0,t_b_6,NULL,NULL,P,NULL,1189
1446581632,a753b22a94bade04f1b3e2594a50fa73,Trial,41,0,t_sp_8,NULL,NULL,P,NULL,2412
1446581632,a753b22a94bade04f1b3e2594a50fa73,Trial,46,0,t_b_6,NULL,NULL,P,NULL,1237
1446581632,a753b22a94bade04f1b3e2594a50fa73,Trial,42,0,t_sp_9,NULL,NULL,T,NULL,1468
1446581632,a753b22a94bade04f1b3e2594a50fa73,Trial,52,0,t_sp_5,NULL,NULL,P,NULL,1292
1446581632,a753b22a94bade04f1b3e2594a50fa73,Trial,45,0,t_b_5,NULL,NULL,P,NULL,991
1446581632,a753b22a94bade04f1b3e2594a50fa73,Trial,40,0,t_sp_7,NULL,NULL,P,NULL,1139
1446581632,a753b22a94bade04f1b3e2594a50fa73,Trial,31,0,t_b_5,NULL,NULL,P,NULL,1122
1446581632,a753b22a94bade04f1b3e2594a50fa73,Trial,35,0,t_b_9,NULL,NULL,P,NULL,1019
1446581632,a753b22a94bade04f1b3e2594a50fa73,Trial,39,0,t_sp_6,NULL,NULL,P,NULL,1014
1446581632,a753b22a94bade04f1b3e2594a50fa73,Trial,54,0,t_sp_7,NULL,NULL,P,NULL,746
1446581632,a753b22a94bade04f1b3e2594a50fa73,Trial,38,0,t_sp_5,NULL,NULL,P,NULL,805
1446581632,a753b22a94bade04f1b3e2594a50fa73,Trial,51,0,t_sp_1,NULL,NULL,P,NULL,1035
1446581632,a753b22a94bade04f1b3e2594a50fa73,Trial,55,0,t_sp_8,NULL,NULL,P,NULL,1473
1446581632,a753b22a94bade04f1b3e2594a50fa73,Trial,53,0,t_sp_6,NULL,NULL,P,NULL,1140
1446581632,a753b22a94bade04f1b3e2594a50fa73,Trial,33,0,t_b_7,NULL,NULL,P,NULL,1048
1446581632,a753b22a94bade04f1b3e2594a50fa73,Trial,48,0,t_b_8,NULL,NULL,P,NULL,780
1446581632,a753b22a94bade04f1b3e2594a50fa73,Trial,30,0,t_b_1,NULL,NULL,P,NULL,842
1446581632,a753b22a94bade04f1b3e2594a50fa73,Trial,49,0,t_b_9,NULL,NULL,P,NULL,1247
1446581632,a753b22a94bade04f1b3e2594a50fa73,Trial,50,0,t_b_18,NULL,NULL,T,NULL,1606
1446581632,a753b22a94bade04f1b3e2594a50fa73,Trial,36,0,t_b_18,NULL,NULL,T,NULL,1118
1446581632,a753b22a94bade04f1b3e2594a50fa73,Trial,57,0,t_sp_18,NULL,NULL,T,NULL,1855
1446581632,a753b22a94bade04f1b3e2594a50fa73,Trial,53,0,t_sp_6,NULL,NULL,T,NULL,907
1446581632,a753b22a94bade04f1b3e2594a50fa73,Trial,44,0,t_b_1,NULL,NULL,P,NULL,914
1446581632,a753b22a94bade04f1b3e2594a50fa73,Trial,30,0,t_b_1,NULL,NULL,P,NULL,818
1446581632,a753b22a94bade04f1b3e2594a50fa73,Trial,50,0,t_b_18,NULL,NULL,T,NULL,1283
1446581632,a753b22a94bade04f1b3e2594a50fa73,Trial,35,0,t_b_9,NULL,NULL,T,NULL,1265
1446581632,a753b22a94bade04f1b3e2594a50fa73,Trial,33,0,t_b_7,NULL,NULL,T,NULL,1207
1446581632,a753b22a94bade04f1b3e2594a50fa73,Trial,47,0,t_b_7,NULL,NULL,T,NULL,1430
1446581632,a753b22a94bade04f1b3e2594a50fa73,Trial,55,0,t_sp_8,NULL,NULL,T,NULL,1283
1446581632,a753b22a94bade04f1b3e2594a50fa73,Trial,43,0,t_sp_18,NULL,NULL,T,NULL,943
1446581632,a753b22a94bade04f1b3e2594a50fa73,Trial,37,0,t_sp_1,NULL,NULL,T,NULL,2040
1446581632,a753b22a94bade04f1b3e2594a50fa73,Trial,48,0,t_b_8,NULL,NULL,T,NULL,914
1446581632,a753b22a94bade04f1b3e2594a50fa73,Trial,46,0,t_b_6,NULL,NULL,T,NULL,897
1446581632,a753b22a94bade04f1b3e2594a50fa73,Trial,51,0,t_sp_1,NULL,NULL,T,NULL,885
1446581632,a753b22a94bade04f1b3e2594a50fa73,Trial,38,0,t_sp_5,NULL,NULL,P,NULL,1701
1446581632,a753b22a94bade04f1b3e2594a50fa73,Trial,45,0,t_b_5,NULL,NULL,P,NULL,921
1446581632,a753b22a94bade04f1b3e2594a50fa73,Trial,42,0,t_sp_9,NULL,NULL,T,NULL,1490
1446581632,a753b22a94bade04f1b3e2594a50fa73,Trial,54,0,t_sp_7,NULL,NULL,T,NULL,2339
1446581632,a753b22a94bade04f1b3e2594a50fa73,Trial,52,0,t_sp_5,NULL,NULL,P,NULL,1353
1446581632,a753b22a94bade04f1b3e2594a50fa73,Trial,40,0,t_sp_7,NULL,NULL,P,NULL,1801
1446581632,a753b22a94bade04f1b3e2594a50fa73,Trial,56,0,t_sp_9,NULL,NULL,P,NULL,1846
1446581632,a753b22a94bade04f1b3e2594a50fa73,Trial,57,0,t_sp_18,NULL,NULL,T,NULL,1161
1446581632,a753b22a94bade04f1b3e2594a50fa73,Trial,41,0,t_sp_8,NULL,NULL,T,NULL,861
1446581632,a753b22a94bade04f1b3e2594a50fa73,Trial,49,0,t_b_9,NULL,NULL,T,NULL,907
1446581632,a753b22a94bade04f1b3e2594a50fa73,Trial,34,0,t_b_8,NULL,NULL,T,NULL,805
1446581632,a753b22a94bade04f1b3e2594a50fa73,Trial,31,0,t_b_5,NULL,NULL,T,NULL,910
1446581632,a753b22a94bade04f1b3e2594a50fa73,Trial,36,0,t_b_18,NULL,NULL,T,NULL,928
1446581632,a753b22a94bade04f1b3e2594a50fa73,Trial,32,0,t_b_6,NULL,NULL,T,NULL,870
1446581632,a753b22a94bade04f1b3e2594a50fa73,Trial,39,0,t_sp_6,NULL,NULL,T,NULL,949
1446581632,a753b22a94bade04f1b3e2594a50fa73,Trial,39,0,t_sp_6,NULL,NULL,T,NULL,1334
1446581632,a753b22a94bade04f1b3e2594a50fa73,Trial,55,0,t_sp_8,NULL,NULL,T,NULL,918
1446581632,a753b22a94bade04f1b3e2594a50fa73,Trial,49,0,t_b_9,NULL,NULL,T,NULL,841
1446581632,a753b22a94bade04f1b3e2594a50fa73,Trial,47,0,t_b_7,NULL,NULL,T,NULL,852
1446581632,a753b22a94bade04f1b3e2594a50fa73,Trial,54,0,t_sp_7,NULL,NULL,T,NULL,717
1446581632,a753b22a94bade04f1b3e2594a50fa73,Trial,52,0,t_sp_5,NULL,NULL,T,NULL,799
1446581632,a753b22a94bade04f1b3e2594a50fa73,Trial,41,0,t_sp_8,NULL,NULL,T,NULL,693
1446581632,a753b22a94bade04f1b3e2594a50fa73,Trial,32,0,t_b_6,NULL,NULL,T,NULL,881
1446581632,a753b22a94bade04f1b3e2594a50fa73,Trial,40,0,t_sp_7,NULL,NULL,T,NULL,1201
1446581632,a753b22a94bade04f1b3e2594a50fa73,Trial,30,0,t_b_1,NULL,NULL,P,NULL,1532
1446581632,a753b22a94bade04f1b3e2594a50fa73,Trial,57,0,t_sp_18,NULL,NULL,T,NULL,1368
1446581632,a753b22a94bade04f1b3e2594a50fa73,Trial,36,0,t_b_18,NULL,NULL,T,NULL,961
1446581632,a753b22a94bade04f1b3e2594a50fa73,Trial,51,0,t_sp_1,NULL,NULL,P,NULL,1413
1446581632,a753b22a94bade04f1b3e2594a50fa73,Trial,33,0,t_b_7,NULL,NULL,T,NULL,1770
1446581632,a753b22a94bade04f1b3e2594a50fa73,Trial,42,0,t_sp_9,NULL,NULL,T,NULL,1023
1446581632,a753b22a94bade04f1b3e2594a50fa73,Trial,43,0,t_sp_18,NULL,NULL,T,NULL,1000
1446581632,a753b22a94bade04f1b3e2594a50fa73,Trial,45,0,t_b_5,NULL,NULL,P,NULL,1209
1446581632,a753b22a94bade04f1b3e2594a50fa73,Trial,56,0,t_sp_9,NULL,NULL,T,NULL,1506
1446581632,a753b22a94bade04f1b3e2594a50fa73,Trial,48,0,t_b_8,NULL,NULL,T,NULL,1149
1446581632,a753b22a94bade04f1b3e2594a50fa73,Trial,35,0,t_b_9,NULL,NULL,T,NULL,1618
1446581632,a753b22a94bade04f1b3e2594a50fa73,Trial,50,0,t_b_18,NULL,NULL,T,NULL,1358
1446581632,a753b22a94bade04f1b3e2594a50fa73,Trial,31,0,t_b_5,NULL,NULL,T,NULL,1149
1446581632,a753b22a94bade04f1b3e2594a50fa73,Trial,44,0,t_b_1,NULL,NULL,P,NULL,1190
1446581632,a753b22a94bade04f1b3e2594a50fa73,Trial,34,0,t_b_8,NULL,NULL,T,NULL,1392
1446581632,a753b22a94bade04f1b3e2594a50fa73,Trial,38,0,t_sp_5,NULL,NULL,T,NULL,2322
1446581632,a753b22a94bade04f1b3e2594a50fa73,Trial,37,0,t_sp_1,NULL,NULL,T,NULL,1812
1446581632,a753b22a94bade04f1b3e2594a50fa73,Trial,46,0,t_b_6,NULL,NULL,T,NULL,1100
1446581632,a753b22a94bade04f1b3e2594a50fa73,Trial,53,0,t_sp_6,NULL,NULL,T,NULL,1249
1446581632,a753b22a94bade04f1b3e2594a50fa73,Trial,30,0,t_b_1,NULL,NULL,P,NULL,1267
1446581632,a753b22a94bade04f1b3e2594a50fa73,Trial,45,0,t_b_5,NULL,NULL,T,NULL,1597
1446581632,a753b22a94bade04f1b3e2594a50fa73,Trial,37,0,t_sp_1,NULL,NULL,P,NULL,1389
1446581632,a753b22a94bade04f1b3e2594a50fa73,Trial,47,0,t_b_7,NULL,NULL,T,NULL,1466
1446581632,a753b22a94bade04f1b3e2594a50fa73,Trial,39,0,t_sp_6,NULL,NULL,T,NULL,1364
1446581632,a753b22a94bade04f1b3e2594a50fa73,Trial,41,0,t_sp_8,NULL,NULL,T,NULL,1328
1446581632,a753b22a94bade04f1b3e2594a50fa73,Trial,44,0,t_b_1,NULL,NULL,P,NULL,1263
1446581632,a753b22a94bade04f1b3e2594a50fa73,Trial,48,0,t_b_8,NULL,NULL,T,NULL,1717
1446581632,a753b22a94bade04f1b3e2594a50fa73,Trial,50,0,t_b_18,NULL,NULL,T,NULL,1763
1446581632,a753b22a94bade04f1b3e2594a50fa73,Trial,56,0,t_sp_9,NULL,NULL,T,NULL,1368
1446581632,a753b22a94bade04f1b3e2594a50fa73,Trial,51,0,t_sp_1,NULL,NULL,P,NULL,1495
1446581632,a753b22a94bade04f1b3e2594a50fa73,Trial,35,0,t_b_9,NULL,NULL,T,NULL,1387
1446581632,a753b22a94bade04f1b3e2594a50fa73,Trial,54,0,t_sp_7,NULL,NULL,T,NULL,1200
1446581632,a753b22a94bade04f1b3e2594a50fa73,Trial,40,0,t_sp_7,NULL,NULL,T,NULL,1218
1446581632,a753b22a94bade04f1b3e2594a50fa73,Trial,32,0,t_b_6,NULL,NULL,P,NULL,1577
1446581632,a753b22a94bade04f1b3e2594a50fa73,Trial,46,0,t_b_6,NULL,NULL,T,NULL,1710
1446581632,a753b22a94bade04f1b3e2594a50fa73,Trial,31,0,t_b_5,NULL,NULL,P,NULL,1519
1446581632,a753b22a94bade04f1b3e2594a50fa73,Trial,33,0,t_b_7,NULL,NULL,P,NULL,1423
1446581632,a753b22a94bade04f1b3e2594a50fa73,Trial,55,0,t_sp_8,NULL,NULL,T,NULL,1561
1446581632,a753b22a94bade04f1b3e2594a50fa73,Trial,42,0,t_sp_9,NULL,NULL,T,NULL,1403
1446581632,a753b22a94bade04f1b3e2594a50fa73,Trial,36,0,t_b_18,NULL,NULL,T,NULL,1362
1446581632,a753b22a94bade04f1b3e2594a50fa73,Trial,49,0,t_b_9,NULL,NULL,T,NULL,1076
1446581632,a753b22a94bade04f1b3e2594a50fa73,Trial,38,0,t_sp_5,NULL,NULL,P,NULL,1488
1446581632,a753b22a94bade04f1b3e2594a50fa73,Trial,43,0,t_sp_18,NULL,NULL,T,NULL,1288
1446581632,a753b22a94bade04f1b3e2594a50fa73,Trial,52,0,t_sp_5,NULL,NULL,T,NULL,1303
1446581632,a753b22a94bade04f1b3e2594a50fa73,Trial,57,0,t_sp_18,NULL,NULL,T,NULL,1736
1446581632,a753b22a94bade04f1b3e2594a50fa73,Trial,53,0,t_sp_6,NULL,NULL,T,NULL,1450
1446581632,a753b22a94bade04f1b3e2594a50fa73,Trial,34,0,t_b_8,NULL,NULL,T,NULL,1180
1446581632,a753b22a94bade04f1b3e2594a50fa73,Trial,32,0,t_b_6,NULL,NULL,T,NULL,1399
1446581632,a753b22a94bade04f1b3e2594a50fa73,Trial,46,0,t_b_6,NULL,NULL,P,NULL,1146
1446581632,a753b22a94bade04f1b3e2594a50fa73,Trial,37,0,t_sp_1,NULL,NULL,P,NULL,958
1446581632,a753b22a94bade04f1b3e2594a50fa73,Trial,38,0,t_sp_5,NULL,NULL,P,NULL,586
1446581632,a753b22a94bade04f1b3e2594a50fa73,Trial,42,0,t_sp_9,NULL,NULL,P,NULL,593
1446581632,a753b22a94bade04f1b3e2594a50fa73,Trial,54,0,t_sp_7,NULL,NULL,T,NULL,1565
1446581632,a753b22a94bade04f1b3e2594a50fa73,Trial,34,0,t_b_8,NULL,NULL,T,NULL,1327
1446581632,a753b22a94bade04f1b3e2594a50fa73,Trial,55,0,t_sp_8,NULL,NULL,T,NULL,1319
1446581632,a753b22a94bade04f1b3e2594a50fa73,Trial,57,0,t_sp_18,NULL,NULL,T,NULL,1148
1446581632,a753b22a94bade04f1b3e2594a50fa73,Trial,39,0,t_sp_6,NULL,NULL,T,NULL,1085
1446581632,a753b22a94bade04f1b3e2594a50fa73,Trial,52,0,t_sp_5,NULL,NULL,T,NULL,1374
1446581632,a753b22a94bade04f1b3e2594a50fa73,Trial,53,0,t_sp_6,NULL,NULL,T,NULL,1217
1446581632,a753b22a94bade04f1b3e2594a50fa73,Trial,49,0,t_b_9,NULL,NULL,T,NULL,1304
1446581632,a753b22a94bade04f1b3e2594a50fa73,Trial,33,0,t_b_7,NULL,NULL,T,NULL,1224
1446581632,a753b22a94bade04f1b3e2594a50fa73,Trial,40,0,t_sp_7,NULL,NULL,T,NULL,1492
1446581632,a753b22a94bade04f1b3e2594a50fa73,Trial,31,0,t_b_5,NULL,NULL,T,NULL,1258
1446581632,a753b22a94bade04f1b3e2594a50fa73,Trial,35,0,t_b_9,NULL,NULL,T,NULL,1188
1446581632,a753b22a94bade04f1b3e2594a50fa73,Trial,44,0,t_b_1,NULL,NULL,P,NULL,1378
1446581632,a753b22a94bade04f1b3e2594a50fa73,Trial,48,0,t_b_8,NULL,NULL,P,NULL,2207
1446581632,a753b22a94bade04f1b3e2594a50fa73,Trial,47,0,t_b_7,NULL,NULL,P,NULL,1362
1446581632,a753b22a94bade04f1b3e2594a50fa73,Trial,51,0,t_sp_1,NULL,NULL,P,NULL,1163
1446581632,a753b22a94bade04f1b3e2594a50fa73,Trial,45,0,t_b_5,NULL,NULL,P,NULL,1093
1446581632,a753b22a94bade04f1b3e2594a50fa73,Trial,50,0,t_b_18,NULL,NULL,T,NULL,1394
1446581632,a753b22a94bade04f1b3e2594a50fa73,Trial,43,0,t_sp_18,NULL,NULL,T,NULL,1617
1446581632,a753b22a94bade04f1b3e2594a50fa73,Trial,41,0,t_sp_8,NULL,NULL,T,NULL,2723
1446581632,a753b22a94bade04f1b3e2594a50fa73,Trial,30,0,t_b_1,NULL,NULL,P,NULL,1433
1446581632,a753b22a94bade04f1b3e2594a50fa73,Trial,56,0,t_sp_9,NULL,NULL,T,NULL,1159
1446581632,a753b22a94bade04f1b3e2594a50fa73,Trial,36,0,t_b_18,NULL,NULL,T,NULL,933
1446581632,a753b22a94bade04f1b3e2594a50fa73,Trial,56,0,t_sp_9,NULL,NULL,T,NULL,855
1446581632,a753b22a94bade04f1b3e2594a50fa73,Trial,46,0,t_b_6,NULL,NULL,P,NULL,1085
1446581632,a753b22a94bade04f1b3e2594a50fa73,Trial,52,0,t_sp_5,NULL,NULL,T,NULL,1357
1446581632,a753b22a94bade04f1b3e2594a50fa73,Trial,54,0,t_sp_7,NULL,NULL,T,NULL,926
1446581632,a753b22a94bade04f1b3e2594a50fa73,Trial,36,0,t_b_18,NULL,NULL,T,NULL,912
1446581632,a753b22a94bade04f1b3e2594a50fa73,Trial,48,0,t_b_8,NULL,NULL,T,NULL,1037
1446581632,a753b22a94bade04f1b3e2594a50fa73,Trial,57,0,t_sp_18,NULL,NULL,T,NULL,890
1446581632,a753b22a94bade04f1b3e2594a50fa73,Trial,47,0,t_b_7,NULL,NULL,T,NULL,1005
1446581632,a753b22a94bade04f1b3e2594a50fa73,Trial,34,0,t_b_8,NULL,NULL,T,NULL,1068
1446581632,a753b22a94bade04f1b3e2594a50fa73,Trial,45,0,t_b_5,NULL,NULL,P,NULL,1987
1446581632,a753b22a94bade04f1b3e2594a50fa73,Trial,32,0,t_b_6,NULL,NULL,P,NULL,887
1446581632,a753b22a94bade04f1b3e2594a50fa73,Trial,55,0,t_sp_8,NULL,NULL,P,NULL,1627
1446581632,a753b22a94bade04f1b3e2594a50fa73,Trial,51,0,t_sp_1,NULL,NULL,P,NULL,1379
1446581632,a753b22a94bade04f1b3e2594a50fa73,Trial,42,0,t_sp_9,NULL,NULL,T,NULL,1459
1446581632,a753b22a94bade04f1b3e2594a50fa73,Trial,43,0,t_sp_18,NULL,NULL,T,NULL,1296
1446581632,a753b22a94bade04f1b3e2594a50fa73,Trial,53,0,t_sp_6,NULL,NULL,T,NULL,1516
1446581632,a753b22a94bade04f1b3e2594a50fa73,Trial,49,0,t_b_9,NULL,NULL,T,NULL,915
1446581632,a753b22a94bade04f1b3e2594a50fa73,Trial,35,0,t_b_9,NULL,NULL,T,NULL,859
1446581632,a753b22a94bade04f1b3e2594a50fa73,Trial,33,0,t_b_7,NULL,NULL,T,NULL,798
1446581632,a753b22a94bade04f1b3e2594a50fa73,Trial,38,0,t_sp_5,NULL,NULL,T,NULL,907
1446581632,a753b22a94bade04f1b3e2594a50fa73,Trial,44,0,t_b_1,NULL,NULL,P,NULL,1242
1446581632,a753b22a94bade04f1b3e2594a50fa73,Trial,41,0,t_sp_8,NULL,NULL,T,NULL,755
1446581632,a753b22a94bade04f1b3e2594a50fa73,Trial,40,0,t_sp_7,NULL,NULL,T,NULL,758
1446581632,a753b22a94bade04f1b3e2594a50fa73,Trial,50,0,t_b_18,NULL,NULL,T,NULL,767
1446581632,a753b22a94bade04f1b3e2594a50fa73,Trial,39,0,t_sp_6,NULL,NULL,T,NULL,787
1446581632,a753b22a94bade04f1b3e2594a50fa73,Trial,31,0,t_b_5,NULL,NULL,P,NULL,1437
1446581632,a753b22a94bade04f1b3e2594a50fa73,Trial,30,0,t_b_1,NULL,NULL,P,NULL,1152
1446581632,a753b22a94bade04f1b3e2594a50fa73,Trial,37,0,t_sp_1,NULL,NULL,P,NULL,1544
1446581632,a753b22a94bade04f1b3e2594a50fa73,Trial,35,0,t_b_9,NULL,NULL,T,NULL,978
1446581632,a753b22a94bade04f1b3e2594a50fa73,Trial,32,0,t_b_6,NULL,NULL,T,NULL,1249
1446581632,a753b22a94bade04f1b3e2594a50fa73,Trial,40,0,t_sp_7,NULL,NULL,T,NULL,936
1446581632,a753b22a94bade04f1b3e2594a50fa73,Trial,38,0,t_sp_5,NULL,NULL,P,NULL,1283
1446581632,a753b22a94bade04f1b3e2594a50fa73,Trial,31,0,t_b_5,NULL,NULL,P,NULL,1107
1446581632,a753b22a94bade04f1b3e2594a50fa73,Trial,41,0,t_sp_8,NULL,NULL,T,NULL,1159
1446581632,a753b22a94bade04f1b3e2594a50fa73,Trial,56,0,t_sp_9,NULL,NULL,T,NULL,898
1446581632,a753b22a94bade04f1b3e2594a50fa73,Trial,57,0,t_sp_18,NULL,NULL,T,NULL,759
1446581632,a753b22a94bade04f1b3e2594a50fa73,Trial,46,0,t_b_6,NULL,NULL,P,NULL,976
1446581632,a753b22a94bade04f1b3e2594a50fa73,Trial,33,0,t_b_7,NULL,NULL,P,NULL,960
1446581632,a753b22a94bade04f1b3e2594a50fa73,Trial,44,0,t_b_1,NULL,NULL,P,NULL,777
1446581632,a753b22a94bade04f1b3e2594a50fa73,Trial,43,0,t_sp_18,NULL,NULL,T,NULL,1951
1446581632,a753b22a94bade04f1b3e2594a50fa73,Trial,34,0,t_b_8,NULL,NULL,T,NULL,1326
1446581632,a753b22a94bade04f1b3e2594a50fa73,Trial,47,0,t_b_7,NULL,NULL,P,NULL,1311
1446581632,a753b22a94bade04f1b3e2594a50fa73,Trial,48,0,t_b_8,NULL,NULL,P,NULL,891
1446581632,a753b22a94bade04f1b3e2594a50fa73,Trial,37,0,t_sp_1,NULL,NULL,P,NULL,922
1446581632,a753b22a94bade04f1b3e2594a50fa73,Trial,54,0,t_sp_7,NULL,NULL,T,NULL,1120
1446581632,a753b22a94bade04f1b3e2594a50fa73,Trial,49,0,t_b_9,NULL,NULL,T,NULL,1440
1446581632,a753b22a94bade04f1b3e2594a50fa73,Trial,45,0,t_b_5,NULL,NULL,P,NULL,1645
1446581632,a753b22a94bade04f1b3e2594a50fa73,Trial,42,0,t_sp_9,NULL,NULL,T,NULL,1415
1446581632,a753b22a94bade04f1b3e2594a50fa73,Trial,50,0,t_b_18,NULL,NULL,T,NULL,1231
1446581632,a753b22a94bade04f1b3e2594a50fa73,Trial,30,0,t_b_1,NULL,NULL,P,NULL,1172
1446581632,a753b22a94bade04f1b3e2594a50fa73,Trial,51,0,t_sp_1,NULL,NULL,P,NULL,1528
1446581632,a753b22a94bade04f1b3e2594a50fa73,Trial,55,0,t_sp_8,NULL,NULL,T,NULL,1402
1446581632,a753b22a94bade04f1b3e2594a50fa73,Trial,53,0,t_sp_6,NULL,NULL,P,NULL,1331
1446581632,a753b22a94bade04f1b3e2594a50fa73,Trial,52,0,t_sp_5,NULL,NULL,P,NULL,921
1446581632,a753b22a94bade04f1b3e2594a50fa73,Trial,36,0,t_b_18,NULL,NULL,T,NULL,1630
1446581632,a753b22a94bade04f1b3e2594a50fa73,Trial,39,0,t_sp_6,NULL,NULL,P,NULL,1682
1446581632,a753b22a94bade04f1b3e2594a50fa73,Trial,30,0,t_b_1,NULL,NULL,P,NULL,999
1446581632,a753b22a94bade04f1b3e2594a50fa73,Trial,41,0,t_sp_8,NULL,NULL,P,NULL,998
1446581632,a753b22a94bade04f1b3e2594a50fa73,Trial,47,0,t_b_7,NULL,NULL,P,NULL,1054
1446581632,a753b22a94bade04f1b3e2594a50fa73,Trial,57,0,t_sp_18,NULL,NULL,T,NULL,1361
1446581632,a753b22a94bade04f1b3e2594a50fa73,Trial,42,0,t_sp_9,NULL,NULL,P,NULL,1175
1446581632,a753b22a94bade04f1b3e2594a50fa73,Trial,51,0,t_sp_1,NULL,NULL,P,NULL,840
1446581632,a753b22a94bade04f1b3e2594a50fa73,Trial,40,0,t_sp_7,NULL,NULL,P,NULL,704
1446581632,a753b22a94bade04f1b3e2594a50fa73,Trial,45,0,t_b_5,NULL,NULL,P,NULL,900
1446581632,a753b22a94bade04f1b3e2594a50fa73,Trial,48,0,t_b_8,NULL,NULL,P,NULL,779
1446581632,a753b22a94bade04f1b3e2594a50fa73,Trial,56,0,t_sp_9,NULL,NULL,P,NULL,545
1446581632,a753b22a94bade04f1b3e2594a50fa73,Trial,54,0,t_sp_7,NULL,NULL,P,NULL,1006
1446581632,a753b22a94bade04f1b3e2594a50fa73,Trial,52,0,t_sp_5,NULL,NULL,P,NULL,962
1446581632,a753b22a94bade04f1b3e2594a50fa73,Trial,38,0,t_sp_5,NULL,NULL,P,NULL,840
1446581632,a753b22a94bade04f1b3e2594a50fa73,Trial,33,0,t_b_7,NULL,NULL,P,NULL,894
1446581632,a753b22a94bade04f1b3e2594a50fa73,Trial,31,0,t_b_5,NULL,NULL,P,NULL,789
1446581632,a753b22a94bade04f1b3e2594a50fa73,Trial,49,0,t_b_9,NULL,NULL,P,NULL,778
1446581632,a753b22a94bade04f1b3e2594a50fa73,Trial,55,0,t_sp_8,NULL,NULL,P,NULL,1518
1446581632,a753b22a94bade04f1b3e2594a50fa73,Trial,46,0,t_b_6,NULL,NULL,P,NULL,864
1446581632,a753b22a94bade04f1b3e2594a50fa73,Trial,36,0,t_b_18,NULL,NULL,T,NULL,1238
1446581632,a753b22a94bade04f1b3e2594a50fa73,Trial,34,0,t_b_8,NULL,NULL,P,NULL,976
1446581632,a753b22a94bade04f1b3e2594a50fa73,Trial,50,0,t_b_18,NULL,NULL,P,NULL,639
1446581632,a753b22a94bade04f1b3e2594a50fa73,Trial,39,0,t_sp_6,NULL,NULL,P,NULL,1016
1446581632,a753b22a94bade04f1b3e2594a50fa73,Trial,35,0,t_b_9,NULL,NULL,P,NULL,894
1446581632,a753b22a94bade04f1b3e2594a50fa73,Trial,43,0,t_sp_18,NULL,NULL,T,NULL,1611
1446581632,a753b22a94bade04f1b3e2594a50fa73,Trial,32,0,t_b_6,NULL,NULL,P,NULL,751
1446581632,a753b22a94bade04f1b3e2594a50fa73,Trial,44,0,t_b_1,NULL,NULL,P,NULL,743
1446581632,a753b22a94bade04f1b3e2594a50fa73,Trial,53,0,t_sp_6,NULL,NULL,P,NULL,1094
1446581632,a753b22a94bade04f1b3e2594a50fa73,Trial,37,0,t_sp_1,NULL,NULL,P,NULL,1084
# Columns below this comment are as follows:
# 1. Time results were received.
# 2. MD5 hash of participant's IP address.
# 3. Controller name.
# 4. Item number.
# 5. Element number.
# 6. Type.
# 7. Group.
# 8. Field name.
# 9. Field value.
1446581632,a753b22a94bade04f1b3e2594a50fa73,Form,17,0,debrief,NULL,comments,Thanks.
1446581632,a753b22a94bade04f1b3e2594a50fa73,Form,17,0,debrief,NULL,_REACTION_TIME_,8671
1446581632,a753b22a94bade04f1b3e2594a50fa73,Form,18,0,exit2,NULL,randomfield,iTuRBKJO
1446581632,a753b22a94bade04f1b3e2594a50fa73,Form,18,0,exit2,NULL,worker_id,A29VL3MZE7YPBZ
1446581632,a753b22a94bade04f1b3e2594a50fa73,Form,18,0,exit2,NULL,identifier,iTuRBKJO
1446581632,a753b22a94bade04f1b3e2594a50fa73,Form,18,0,exit2,NULL,_REACTION_TIME_,12574
#
# Results on Tuesday November 03 2015 20:19:33 UTC.
# USER AGENT: Mozilla/5.0 (Windows NT 6.1; Win64; x64; rv:41.0) Gecko/20100101 Firefox/41.0 Cyberfox/41.0.3
# Design number was non-random = 0
#
# Columns below this comment are as follows:
# 1. Time results were received.
# 2. MD5 hash of participant's IP address.
# 3. Controller name.
# 4. Item number.
# 5. Element number.
# 6. Type.
# 7. Group.
# 8. Field name.
# 9. Field value.
1446581973,d16d77098df28fa17a8c89326b9b5194,Form,2,0,intro,NULL,consentanswer,ptP,T
1446581973,d16d77098df28fa17a8c89326b9b5194,Form,2,0,intro,NULL,_REACTION_TIME_,6064
1446581973,d16d77098df28fa17a8c89326b9b5194,Form,3,0,questionnaire,NULL,write_something,
1446581973,d16d77098df28fa17a8c89326b9b5194,Form,3,0,questionnaire,NULL,NatLang,eng
1446581973,d16d77098df28fa17a8c89326b9b5194,Form,3,0,questionnaire,NULL,disorder,disorderno
1446581973,d16d77098df28fa17a8c89326b9b5194,Form,3,0,questionnaire,NULL,_REACTION_TIME_,11776
1446581973,d16d77098df28fa17a8c89326b9b5194,Form,4,0,headphones,NULL,headphonebrand,Sennheiser
1446581973,d16d77098df28fa17a8c89326b9b5194,Form,4,0,headphones,NULL,headphonemodel,eH250
1446581973,d16d77098df28fa17a8c89326b9b5194,Form,4,0,headphones,NULL,headphoneyesno,headphoneyes
1446581973,d16d77098df28fa17a8c89326b9b5194,Form,4,0,headphones,NULL,_REACTION_TIME_,31927
# Columns below this comment are as follows:
# 1. Time results were received.
# 2. MD5 hash of participant's IP address.
# 3. Controller name.
# 4. Item number.
# 5. Element number.
# 6. Type.
# 7. Group.
# 8. Question (NULL if none).
# 9. Answer.
# 10. Whether or not answer was correct (NULL if N/A).
# 11. Time taken to answer.
1446581973,d16d77098df28fa17a8c89326b9b5194,Trial,22,0,pnt_b_1,NULL,&nbsp;&nbsp;&nbsp;&nbsp;click on the sound,P,NULL,4855
1446581973,d16d77098df28fa17a8c89326b9b5194,Trial,23,0,pnt_b_18,NULL,&nbsp;&nbsp;&nbsp;&nbsp;click on the sound,T,NULL,2534
1446581973,d16d77098df28fa17a8c89326b9b5194,Trial,24,0,pnt_sp_1,NULL,&nbsp;&nbsp;&nbsp;&nbsp;click on the sound,T,NULL,2912
1446581973,d16d77098df28fa17a8c89326b9b5194,Trial,25,0,pnt_sp_18,NULL,&nbsp;&nbsp;&nbsp;&nbsp;click on the sound,T,NULL,2611
1446581973,d16d77098df28fa17a8c89326b9b5194,Trial,29,0,pto_b_18,NULL,&nbsp;&nbsp;&nbsp;&nbsp;click on the sound,T,NULL,1179
1446581973,d16d77098df28fa17a8c89326b9b5194,Trial,27,0,pto_sp_18,NULL,&nbsp;&nbsp;&nbsp;&nbsp;click on the sound,P,NULL,2124
1446581973,d16d77098df28fa17a8c89326b9b5194,Trial,26,0,pto_sp_1,NULL,&nbsp;&nbsp;&nbsp;&nbsp;click on the sound,P,NULL,2092
1446581973,d16d77098df28fa17a8c89326b9b5194,Trial,28,0,pto_b_1,NULL,&nbsp;&nbsp;&nbsp;&nbsp;click on the sound,T,NULL,1212
1446581973,d16d77098df28fa17a8c89326b9b5194,Trial,56,0,t_sp_9,NULL,NULL,T,NULL,1861
1446581973,d16d77098df28fa17a8c89326b9b5194,Trial,32,0,t_b_6,NULL,NULL,P,NULL,1761
1446581973,d16d77098df28fa17a8c89326b9b5194,Trial,33,0,t_b_7,NULL,NULL,P,NULL,2396
1446581973,d16d77098df28fa17a8c89326b9b5194,Trial,47,0,t_b_7,NULL,NULL,T,NULL,4213
1446581973,d16d77098df28fa17a8c89326b9b5194,Trial,49,0,t_b_9,NULL,NULL,T,NULL,1503
1446581973,d16d77098df28fa17a8c89326b9b5194,Trial,39,0,t_sp_6,NULL,NULL,T,NULL,3049
1446581973,d16d77098df28fa17a8c89326b9b5194,Trial,53,0,t_sp_6,NULL,NULL,T,NULL,1105
1446581973,d16d77098df28fa17a8c89326b9b5194,Trial,40,0,t_sp_7,NULL,NULL,T,NULL,2003
1446581973,d16d77098df28fa17a8c89326b9b5194,Trial,41,0,t_sp_8,NULL,NULL,T,NULL,3667
1446581973,d16d77098df28fa17a8c89326b9b5194,Trial,42,0,t_sp_9,NULL,NULL,T,NULL,1717
1446581973,d16d77098df28fa17a8c89326b9b5194,Trial,45,0,t_b_5,NULL,NULL,P,NULL,1103
1446581973,d16d77098df28fa17a8c89326b9b5194,Trial,55,0,t_sp_8,NULL,NULL,T,NULL,1095
1446581973,d16d77098df28fa17a8c89326b9b5194,Trial,30,0,t_b_1,NULL,NULL,P,NULL,1108
1446581973,d16d77098df28fa17a8c89326b9b5194,Trial,50,0,t_b_18,NULL,NULL,P,NULL,1078
1446581973,d16d77098df28fa17a8c89326b9b5194,Trial,57,0,t_sp_18,NULL,NULL,T,NULL,1590
1446581973,d16d77098df28fa17a8c89326b9b5194,Trial,44,0,t_b_1,NULL,NULL,P,NULL,1049
1446581973,d16d77098df28fa17a8c89326b9b5194,Trial,54,0,t_sp_7,NULL,NULL,T,NULL,841
1446581973,d16d77098df28fa17a8c89326b9b5194,Trial,35,0,t_b_9,NULL,NULL,P,NULL,1103
1446581973,d16d77098df28fa17a8c89326b9b5194,Trial,52,0,t_sp_5,NULL,NULL,T,NULL,1010
1446581973,d16d77098df28fa17a8c89326b9b5194,Trial,38,0,t_sp_5,NULL,NULL,T,NULL,1180
1446581973,d16d77098df28fa17a8c89326b9b5194,Trial,31,0,t_b_5,NULL,NULL,P,NULL,1631
1446581973,d16d77098df28fa17a8c89326b9b5194,Trial,36,0,t_b_18,NULL,NULL,P,NULL,1517
1446581973,d16d77098df28fa17a8c89326b9b5194,Trial,43,0,t_sp_18,NULL,NULL,T,NULL,1261
1446581973,d16d77098df28fa17a8c89326b9b5194,Trial,51,0,t_sp_1,NULL,NULL,P,NULL,1747
1446581973,d16d77098df28fa17a8c89326b9b5194,Trial,34,0,t_b_8,NULL,NULL,P,NULL,3223
1446581973,d16d77098df28fa17a8c89326b9b5194,Trial,37,0,t_sp_1,NULL,NULL,P,NULL,1561
1446581973,d16d77098df28fa17a8c89326b9b5194,Trial,46,0,t_b_6,NULL,NULL,T,NULL,1793
1446581973,d16d77098df28fa17a8c89326b9b5194,Trial,48,0,t_b_8,NULL,NULL,P,NULL,1630
1446581973,d16d77098df28fa17a8c89326b9b5194,Trial,43,0,t_sp_18,NULL,NULL,T,NULL,1881
1446581973,d16d77098df28fa17a8c89326b9b5194,Trial,52,0,t_sp_5,NULL,NULL,P,NULL,3113
1446581973,d16d77098df28fa17a8c89326b9b5194,Trial,41,0,t_sp_8,NULL,NULL,T,NULL,1242
1446581973,d16d77098df28fa17a8c89326b9b5194,Trial,47,0,t_b_7,NULL,NULL,P,NULL,1076
1446581973,d16d77098df28fa17a8c89326b9b5194,Trial,51,0,t_sp_1,NULL,NULL,T,NULL,1700
1446581973,d16d77098df28fa17a8c89326b9b5194,Trial,56,0,t_sp_9,NULL,NULL,T,NULL,1790
1446581973,d16d77098df28fa17a8c89326b9b5194,Trial,40,0,t_sp_7,NULL,NULL,P,NULL,1736
1446581973,d16d77098df28fa17a8c89326b9b5194,Trial,55,0,t_sp_8,NULL,NULL,T,NULL,1899
1446581973,d16d77098df28fa17a8c89326b9b5194,Trial,37,0,t_sp_1,NULL,NULL,P,NULL,1791
1446581973,d16d77098df28fa17a8c89326b9b5194,Trial,34,0,t_b_8,NULL,NULL,P,NULL,1924
1446581973,d16d77098df28fa17a8c89326b9b5194,Trial,33,0,t_b_7,NULL,NULL,P,NULL,1893
1446581973,d16d77098df28fa17a8c89326b9b5194,Trial,48,0,t_b_8,NULL,NULL,P,NULL,1322
1446581973,d16d77098df28fa17a8c89326b9b5194,Trial,49,0,t_b_9,NULL,NULL,P,NULL,1965
1446581973,d16d77098df28fa17a8c89326b9b5194,Trial,42,0,t_sp_9,NULL,NULL,T,NULL,1614
1446581973,d16d77098df28fa17a8c89326b9b5194,Trial,50,0,t_b_18,NULL,NULL,T,NULL,1378
1446581973,d16d77098df28fa17a8c89326b9b5194,Trial,46,0,t_b_6,NULL,NULL,P,NULL,1971
1446581973,d16d77098df28fa17a8c89326b9b5194,Trial,44,0,t_b_1,NULL,NULL,P,NULL,1201
1446581973,d16d77098df28fa17a8c89326b9b5194,Trial,45,0,t_b_5,NULL,NULL,P,NULL,1095
1446581973,d16d77098df28fa17a8c89326b9b5194,Trial,53,0,t_sp_6,NULL,NULL,T,NULL,1246
1446581973,d16d77098df28fa17a8c89326b9b5194,Trial,57,0,t_sp_18,NULL,NULL,T,NULL,1311
1446581973,d16d77098df28fa17a8c89326b9b5194,Trial,54,0,t_sp_7,NULL,NULL,T,NULL,1504
1446581973,d16d77098df28fa17a8c89326b9b5194,Trial,31,0,t_b_5,NULL,NULL,P,NULL,1324
1446581973,d16d77098df28fa17a8c89326b9b5194,Trial,30,0,t_b_1,NULL,NULL,P,NULL,1082
1446581973,d16d77098df28fa17a8c89326b9b5194,Trial,36,0,t_b_18,NULL,NULL,T,NULL,1981
1446581973,d16d77098df28fa17a8c89326b9b5194,Trial,32,0,t_b_6,NULL,NULL,P,NULL,2131
1446581973,d16d77098df28fa17a8c89326b9b5194,Trial,35,0,t_b_9,NULL,NULL,P,NULL,1168
1446581973,d16d77098df28fa17a8c89326b9b5194,Trial,38,0,t_sp_5,NULL,NULL,NULL,NULL,4404
1446581973,d16d77098df28fa17a8c89326b9b5194,Trial,39,0,t_sp_6,NULL,NULL,T,NULL,1185
1446581973,d16d77098df28fa17a8c89326b9b5194,Trial,43,0,t_sp_18,NULL,NULL,T,NULL,934
1446581973,d16d77098df28fa17a8c89326b9b5194,Trial,56,0,t_sp_9,NULL,NULL,T,NULL,1468
1446581973,d16d77098df28fa17a8c89326b9b5194,Trial,47,0,t_b_7,NULL,NULL,P,NULL,1188
1446581973,d16d77098df28fa17a8c89326b9b5194,Trial,32,0,t_b_6,NULL,NULL,P,NULL,978
1446581973,d16d77098df28fa17a8c89326b9b5194,Trial,30,0,t_b_1,NULL,NULL,P,NULL,943
1446581973,d16d77098df28fa17a8c89326b9b5194,Trial,39,0,t_sp_6,NULL,NULL,T,NULL,1109
1446581973,d16d77098df28fa17a8c89326b9b5194,Trial,49,0,t_b_9,NULL,NULL,P,NULL,887
1446581973,d16d77098df28fa17a8c89326b9b5194,Trial,36,0,t_b_18,NULL,NULL,P,NULL,1058
1446581973,d16d77098df28fa17a8c89326b9b5194,Trial,35,0,t_b_9,NULL,NULL,P,NULL,1130
1446581973,d16d77098df28fa17a8c89326b9b5194,Trial,38,0,t_sp_5,NULL,NULL,T,NULL,2093
1446581973,d16d77098df28fa17a8c89326b9b5194,Trial,57,0,t_sp_18,NULL,NULL,T,NULL,1930
1446581973,d16d77098df28fa17a8c89326b9b5194,Trial,51,0,t_sp_1,NULL,NULL,P,NULL,2096
1446581973,d16d77098df28fa17a8c89326b9b5194,Trial,48,0,t_b_8,NULL,NULL,P,NULL,1280
1446581973,d16d77098df28fa17a8c89326b9b5194,Trial,44,0,t_b_1,NULL,NULL,P,NULL,1161
1446581973,d16d77098df28fa17a8c89326b9b5194,Trial,52,0,t_sp_5,NULL,NULL,T,NULL,1665
1446581973,d16d77098df28fa17a8c89326b9b5194,Trial,42,0,t_sp_9,NULL,NULL,T,NULL,1683
1446581973,d16d77098df28fa17a8c89326b9b5194,Trial,54,0,t_sp_7,NULL,NULL,T,NULL,1948
1446581973,d16d77098df28fa17a8c89326b9b5194,Trial,45,0,t_b_5,NULL,NULL,P,NULL,2915
1446581973,d16d77098df28fa17a8c89326b9b5194,Trial,40,0,t_sp_7,NULL,NULL,T,NULL,1593
1446581973,d16d77098df28fa17a8c89326b9b5194,Trial,37,0,t_sp_1,NULL,NULL,P,NULL,2153
1446581973,d16d77098df28fa17a8c89326b9b5194,Trial,33,0,t_b_7,NULL,NULL,P,NULL,1074
1446581973,d16d77098df28fa17a8c89326b9b5194,Trial,55,0,t_sp_8,NULL,NULL,T,NULL,1398
1446581973,d16d77098df28fa17a8c89326b9b5194,Trial,46,0,t_b_6,NULL,NULL,P,NULL,1560
1446581973,d16d77098df28fa17a8c89326b9b5194,Trial,34,0,t_b_8,NULL,NULL,P,NULL,1099
1446581973,d16d77098df28fa17a8c89326b9b5194,Trial,50,0,t_b_18,NULL,NULL,T,NULL,1494
1446581973,d16d77098df28fa17a8c89326b9b5194,Trial,41,0,t_sp_8,NULL,NULL,T,NULL,1456
1446581973,d16d77098df28fa17a8c89326b9b5194,Trial,31,0,t_b_5,NULL,NULL,P,NULL,1796
1446581973,d16d77098df28fa17a8c89326b9b5194,Trial,53,0,t_sp_6,NULL,NULL,T,NULL,2680
1446581973,d16d77098df28fa17a8c89326b9b5194,Trial,38,0,t_sp_5,NULL,NULL,T,NULL,1831
1446581973,d16d77098df28fa17a8c89326b9b5194,Trial,32,0,t_b_6,NULL,NULL,P,NULL,2268
1446581973,d16d77098df28fa17a8c89326b9b5194,Trial,53,0,t_sp_6,NULL,NULL,T,NULL,1951
1446581973,d16d77098df28fa17a8c89326b9b5194,Trial,54,0,t_sp_7,NULL,NULL,T,NULL,1290
1446581973,d16d77098df28fa17a8c89326b9b5194,Trial,30,0,t_b_1,NULL,NULL,P,NULL,1902
1446581973,d16d77098df28fa17a8c89326b9b5194,Trial,46,0,t_b_6,NULL,NULL,P,NULL,997
1446581973,d16d77098df28fa17a8c89326b9b5194,Trial,49,0,t_b_9,NULL,NULL,P,NULL,1372
1446581973,d16d77098df28fa17a8c89326b9b5194,Trial,41,0,t_sp_8,NULL,NULL,T,NULL,3613
1446581973,d16d77098df28fa17a8c89326b9b5194,Trial,56,0,t_sp_9,NULL,NULL,T,NULL,1853
1446581973,d16d77098df28fa17a8c89326b9b5194,Trial,40,0,t_sp_7,NULL,NULL,T,NULL,1563
1446581973,d16d77098df28fa17a8c89326b9b5194,Trial,50,0,t_b_18,NULL,NULL,P,NULL,1528
1446581973,d16d77098df28fa17a8c89326b9b5194,Trial,55,0,t_sp_8,NULL,NULL,P,NULL,3094
1446581973,d16d77098df28fa17a8c89326b9b5194,Trial,43,0,t_sp_18,NULL,NULL,T,NULL,1847
1446581973,d16d77098df28fa17a8c89326b9b5194,Trial,51,0,t_sp_1,NULL,NULL,T,NULL,1663
1446581973,d16d77098df28fa17a8c89326b9b5194,Trial,37,0,t_sp_1,NULL,NULL,P,NULL,1720
1446581973,d16d77098df28fa17a8c89326b9b5194,Trial,52,0,t_sp_5,NULL,NULL,P,NULL,1217
1446581973,d16d77098df28fa17a8c89326b9b5194,Trial,48,0,t_b_8,NULL,NULL,P,NULL,1305
1446581973,d16d77098df28fa17a8c89326b9b5194,Trial,45,0,t_b_5,NULL,NULL,P,NULL,1765
1446581973,d16d77098df28fa17a8c89326b9b5194,Trial,33,0,t_b_7,NULL,NULL,P,NULL,1452
1446581973,d16d77098df28fa17a8c89326b9b5194,Trial,57,0,t_sp_18,NULL,NULL,T,NULL,1522
1446581973,d16d77098df28fa17a8c89326b9b5194,Trial,44,0,t_b_1,NULL,NULL,P,NULL,1116
1446581973,d16d77098df28fa17a8c89326b9b5194,Trial,47,0,t_b_7,NULL,NULL,P,NULL,894
1446581973,d16d77098df28fa17a8c89326b9b5194,Trial,42,0,t_sp_9,NULL,NULL,T,NULL,1236
1446581973,d16d77098df28fa17a8c89326b9b5194,Trial,31,0,t_b_5,NULL,NULL,T,NULL,2145
1446581973,d16d77098df28fa17a8c89326b9b5194,Trial,36,0,t_b_18,NULL,NULL,T,NULL,1237
1446581973,d16d77098df28fa17a8c89326b9b5194,Trial,39,0,t_sp_6,NULL,NULL,T,NULL,1330
1446581973,d16d77098df28fa17a8c89326b9b5194,Trial,34,0,t_b_8,NULL,NULL,P,NULL,2281
1446581973,d16d77098df28fa17a8c89326b9b5194,Trial,35,0,t_b_9,NULL,NULL,P,NULL,1104
1446581973,d16d77098df28fa17a8c89326b9b5194,Trial,38,0,t_sp_5,NULL,NULL,T,NULL,1745
1446581973,d16d77098df28fa17a8c89326b9b5194,Trial,39,0,t_sp_6,NULL,NULL,T,NULL,1681
1446581973,d16d77098df28fa17a8c89326b9b5194,Trial,30,0,t_b_1,NULL,NULL,P,NULL,2188
1446581973,d16d77098df28fa17a8c89326b9b5194,Trial,44,0,t_b_1,NULL,NULL,P,NULL,1082
1446581973,d16d77098df28fa17a8c89326b9b5194,Trial,47,0,t_b_7,NULL,NULL,P,NULL,857
1446581973,d16d77098df28fa17a8c89326b9b5194,Trial,46,0,t_b_6,NULL,NULL,P,NULL,942
1446581973,d16d77098df28fa17a8c89326b9b5194,Trial,37,0,t_sp_1,NULL,NULL,T,NULL,2506
1446581973,d16d77098df28fa17a8c89326b9b5194,Trial,45,0,t_b_5,NULL,NULL,P,NULL,2072
1446581973,d16d77098df28fa17a8c89326b9b5194,Trial,51,0,t_sp_1,NULL,NULL,P,NULL,1955
1446581973,d16d77098df28fa17a8c89326b9b5194,Trial,33,0,t_b_7,NULL,NULL,P,NULL,1993
1446581973,d16d77098df28fa17a8c89326b9b5194,Trial,50,0,t_b_18,NULL,NULL,T,NULL,1834
1446581973,d16d77098df28fa17a8c89326b9b5194,Trial,56,0,t_sp_9,NULL,NULL,T,NULL,1879
1446581973,d16d77098df28fa17a8c89326b9b5194,Trial,49,0,t_b_9,NULL,NULL,P,NULL,1858
1446581973,d16d77098df28fa17a8c89326b9b5194,Trial,34,0,t_b_8,NULL,NULL,P,NULL,1221
1446581973,d16d77098df28fa17a8c89326b9b5194,Trial,55,0,t_sp_8,NULL,NULL,T,NULL,2095
1446581973,d16d77098df28fa17a8c89326b9b5194,Trial,42,0,t_sp_9,NULL,NULL,T,NULL,2330
1446581973,d16d77098df28fa17a8c89326b9b5194,Trial,48,0,t_b_8,NULL,NULL,P,NULL,1449
1446581973,d16d77098df28fa17a8c89326b9b5194,Trial,40,0,t_sp_7,NULL,NULL,T,NULL,1717
1446581973,d16d77098df28fa17a8c89326b9b5194,Trial,57,0,t_sp_18,NULL,NULL,T,NULL,1349
1446581973,d16d77098df28fa17a8c89326b9b5194,Trial,31,0,t_b_5,NULL,NULL,P,NULL,1645
1446581973,d16d77098df28fa17a8c89326b9b5194,Trial,32,0,t_b_6,NULL,NULL,P,NULL,1259
1446581973,d16d77098df28fa17a8c89326b9b5194,Trial,54,0,t_sp_7,NULL,NULL,T,NULL,2323
1446581973,d16d77098df28fa17a8c89326b9b5194,Trial,52,0,t_sp_5,NULL,NULL,T,NULL,1133
1446581973,d16d77098df28fa17a8c89326b9b5194,Trial,53,0,t_sp_6,NULL,NULL,T,NULL,3662
1446581973,d16d77098df28fa17a8c89326b9b5194,Trial,36,0,t_b_18,NULL,NULL,P,NULL,2105
1446581973,d16d77098df28fa17a8c89326b9b5194,Trial,41,0,t_sp_8,NULL,NULL,T,NULL,2109
1446581973,d16d77098df28fa17a8c89326b9b5194,Trial,35,0,t_b_9,NULL,NULL,P,NULL,1667
1446581973,d16d77098df28fa17a8c89326b9b5194,Trial,43,0,t_sp_18,NULL,NULL,T,NULL,2105
1446581973,d16d77098df28fa17a8c89326b9b5194,Trial,39,0,t_sp_6,NULL,NULL,T,NULL,2789
1446581973,d16d77098df28fa17a8c89326b9b5194,Trial,36,0,t_b_18,NULL,NULL,T,NULL,2718
1446581973,d16d77098df28fa17a8c89326b9b5194,Trial,56,0,t_sp_9,NULL,NULL,T,NULL,2533
1446581973,d16d77098df28fa17a8c89326b9b5194,Trial,50,0,t_b_18,NULL,NULL,T,NULL,3004
1446581973,d16d77098df28fa17a8c89326b9b5194,Trial,44,0,t_b_1,NULL,NULL,P,NULL,3463
1446581973,d16d77098df28fa17a8c89326b9b5194,Trial,51,0,t_sp_1,NULL,NULL,P,NULL,3277
1446581973,d16d77098df28fa17a8c89326b9b5194,Trial,35,0,t_b_9,NULL,NULL,P,NULL,1928
1446581973,d16d77098df28fa17a8c89326b9b5194,Trial,46,0,t_b_6,NULL,NULL,P,NULL,1126
1446581973,d16d77098df28fa17a8c89326b9b5194,Trial,57,0,t_sp_18,NULL,NULL,T,NULL,2614
1446581973,d16d77098df28fa17a8c89326b9b5194,Trial,53,0,t_sp_6,NULL,NULL,T,NULL,1212
1446581973,d16d77098df28fa17a8c89326b9b5194,Trial,41,0,t_sp_8,NULL,NULL,T,NULL,1093
1446581973,d16d77098df28fa17a8c89326b9b5194,Trial,43,0,t_sp_18,NULL,NULL,T,NULL,1095
1446581973,d16d77098df28fa17a8c89326b9b5194,Trial,55,0,t_sp_8,NULL,NULL,T,NULL,1441
1446581973,d16d77098df28fa17a8c89326b9b5194,Trial,47,0,t_b_7,NULL,NULL,P,NULL,1076
1446581973,d16d77098df28fa17a8c89326b9b5194,Trial,48,0,t_b_8,NULL,NULL,P,NULL,943
1446581973,d16d77098df28fa17a8c89326b9b5194,Trial,45,0,t_b_5,NULL,NULL,P,NULL,818
1446581973,d16d77098df28fa17a8c89326b9b5194,Trial,32,0,t_b_6,NULL,NULL,P,NULL,706
1446581973,d16d77098df28fa17a8c89326b9b5194,Trial,54,0,t_sp_7,NULL,NULL,T,NULL,2860
1446581973,d16d77098df28fa17a8c89326b9b5194,Trial,40,0,t_sp_7,NULL,NULL,T,NULL,1075
1446581973,d16d77098df28fa17a8c89326b9b5194,Trial,38,0,t_sp_5,NULL,NULL,T,NULL,1097
1446581973,d16d77098df28fa17a8c89326b9b5194,Trial,52,0,t_sp_5,NULL,NULL,T,NULL,989
1446581973,d16d77098df28fa17a8c89326b9b5194,Trial,37,0,t_sp_1,NULL,NULL,P,NULL,1556
1446581973,d16d77098df28fa17a8c89326b9b5194,Trial,30,0,t_b_1,NULL,NULL,P,NULL,1536
1446581973,d16d77098df28fa17a8c89326b9b5194,Trial,33,0,t_b_7,NULL,NULL,P,NULL,3212
1446581973,d16d77098df28fa17a8c89326b9b5194,Trial,34,0,t_b_8,NULL,NULL,P,NULL,1196
1446581973,d16d77098df28fa17a8c89326b9b5194,Trial,42,0,t_sp_9,NULL,NULL,T,NULL,1881
1446581973,d16d77098df28fa17a8c89326b9b5194,Trial,31,0,t_b_5,NULL,NULL,P,NULL,1590
1446581973,d16d77098df28fa17a8c89326b9b5194,Trial,49,0,t_b_9,NULL,NULL,T,NULL,2278
1446581973,d16d77098df28fa17a8c89326b9b5194,Trial,35,0,t_b_9,NULL,NULL,P,NULL,2003
1446581973,d16d77098df28fa17a8c89326b9b5194,Trial,57,0,t_sp_18,NULL,NULL,T,NULL,1899
1446581973,d16d77098df28fa17a8c89326b9b5194,Trial,50,0,t_b_18,NULL,NULL,T,NULL,1632
1446581973,d16d77098df28fa17a8c89326b9b5194,Trial,31,0,t_b_5,NULL,NULL,P,NULL,1799
1446581973,d16d77098df28fa17a8c89326b9b5194,Trial,40,0,t_sp_7,NULL,NULL,T,NULL,1841
1446581973,d16d77098df28fa17a8c89326b9b5194,Trial,47,0,t_b_7,NULL,NULL,P,NULL,2240
1446581973,d16d77098df28fa17a8c89326b9b5194,Trial,52,0,t_sp_5,NULL,NULL,T,NULL,2246
1446581973,d16d77098df28fa17a8c89326b9b5194,Trial,53,0,t_sp_6,NULL,NULL,T,NULL,1333
1446581973,d16d77098df28fa17a8c89326b9b5194,Trial,48,0,t_b_8,NULL,NULL,P,NULL,1419
1446581973,d16d77098df28fa17a8c89326b9b5194,Trial,37,0,t_sp_1,NULL,NULL,P,NULL,2149
1446581973,d16d77098df28fa17a8c89326b9b5194,Trial,32,0,t_b_6,NULL,NULL,P,NULL,1306
1446581973,d16d77098df28fa17a8c89326b9b5194,Trial,30,0,t_b_1,NULL,NULL,P,NULL,1448
1446581973,d16d77098df28fa17a8c89326b9b5194,Trial,34,0,t_b_8,NULL,NULL,P,NULL,1332
1446581973,d16d77098df28fa17a8c89326b9b5194,Trial,49,0,t_b_9,NULL,NULL,T,NULL,1874
1446581973,d16d77098df28fa17a8c89326b9b5194,Trial,39,0,t_sp_6,NULL,NULL,T,NULL,1135
1446581973,d16d77098df28fa17a8c89326b9b5194,Trial,46,0,t_b_6,NULL,NULL,T,NULL,1521
1446581973,d16d77098df28fa17a8c89326b9b5194,Trial,44,0,t_b_1,NULL,NULL,P,NULL,3039
1446581973,d16d77098df28fa17a8c89326b9b5194,Trial,54,0,t_sp_7,NULL,NULL,T,NULL,1833
1446581973,d16d77098df28fa17a8c89326b9b5194,Trial,42,0,t_sp_9,NULL,NULL,T,NULL,1981
1446581973,d16d77098df28fa17a8c89326b9b5194,Trial,51,0,t_sp_1,NULL,NULL,T,NULL,3030
1446581973,d16d77098df28fa17a8c89326b9b5194,Trial,56,0,t_sp_9,NULL,NULL,T,NULL,1266
1446581973,d16d77098df28fa17a8c89326b9b5194,Trial,43,0,t_sp_18,NULL,NULL,T,NULL,904
1446581973,d16d77098df28fa17a8c89326b9b5194,Trial,45,0,t_b_5,NULL,NULL,P,NULL,3886
1446581973,d16d77098df28fa17a8c89326b9b5194,Trial,41,0,t_sp_8,NULL,NULL,T,NULL,1535
1446581973,d16d77098df28fa17a8c89326b9b5194,Trial,55,0,t_sp_8,NULL,NULL,T,NULL,2377
1446581973,d16d77098df28fa17a8c89326b9b5194,Trial,38,0,t_sp_5,NULL,NULL,P,NULL,1496
1446581973,d16d77098df28fa17a8c89326b9b5194,Trial,36,0,t_b_18,NULL,NULL,P,NULL,1132
1446581973,d16d77098df28fa17a8c89326b9b5194,Trial,33,0,t_b_7,NULL,NULL,P,NULL,2320
1446581973,d16d77098df28fa17a8c89326b9b5194,Trial,52,0,t_sp_5,NULL,NULL,T,NULL,1091
1446581973,d16d77098df28fa17a8c89326b9b5194,Trial,43,0,t_sp_18,NULL,NULL,T,NULL,1476
1446581973,d16d77098df28fa17a8c89326b9b5194,Trial,37,0,t_sp_1,NULL,NULL,P,NULL,4097
1446581973,d16d77098df28fa17a8c89326b9b5194,Trial,44,0,t_b_1,NULL,NULL,P,NULL,1681
1446581973,d16d77098df28fa17a8c89326b9b5194,Trial,38,0,t_sp_5,NULL,NULL,P,NULL,2240
1446581973,d16d77098df28fa17a8c89326b9b5194,Trial,40,0,t_sp_7,NULL,NULL,T,NULL,2511
1446581973,d16d77098df28fa17a8c89326b9b5194,Trial,35,0,t_b_9,NULL,NULL,T,NULL,3110
1446581973,d16d77098df28fa17a8c89326b9b5194,Trial,55,0,t_sp_8,NULL,NULL,T,NULL,1260
1446581973,d16d77098df28fa17a8c89326b9b5194,Trial,53,0,t_sp_6,NULL,NULL,T,NULL,1456
1446581973,d16d77098df28fa17a8c89326b9b5194,Trial,31,0,t_b_5,NULL,NULL,P,NULL,2332
1446581973,d16d77098df28fa17a8c89326b9b5194,Trial,33,0,t_b_7,NULL,NULL,P,NULL,1878
1446581973,d16d77098df28fa17a8c89326b9b5194,Trial,42,0,t_sp_9,NULL,NULL,T,NULL,1425
1446581973,d16d77098df28fa17a8c89326b9b5194,Trial,34,0,t_b_8,NULL,NULL,P,NULL,1867
1446581973,d16d77098df28fa17a8c89326b9b5194,Trial,48,0,t_b_8,NULL,NULL,P,NULL,2322
1446581973,d16d77098df28fa17a8c89326b9b5194,Trial,39,0,t_sp_6,NULL,NULL,T,NULL,1952
1446581973,d16d77098df28fa17a8c89326b9b5194,Trial,50,0,t_b_18,NULL,NULL,T,NULL,1221
1446581973,d16d77098df28fa17a8c89326b9b5194,Trial,49,0,t_b_9,NULL,NULL,T,NULL,1847
1446581973,d16d77098df28fa17a8c89326b9b5194,Trial,36,0,t_b_18,NULL,NULL,T,NULL,1179
1446581973,d16d77098df28fa17a8c89326b9b5194,Trial,56,0,t_sp_9,NULL,NULL,T,NULL,1399
1446581973,d16d77098df28fa17a8c89326b9b5194,Trial,30,0,t_b_1,NULL,NULL,P,NULL,1381
1446581973,d16d77098df28fa17a8c89326b9b5194,Trial,51,0,t_sp_1,NULL,NULL,P,NULL,1136
1446581973,d16d77098df28fa17a8c89326b9b5194,Trial,54,0,t_sp_7,NULL,NULL,T,NULL,1764
1446581973,d16d77098df28fa17a8c89326b9b5194,Trial,45,0,t_b_5,NULL,NULL,P,NULL,1749
1446581973,d16d77098df28fa17a8c89326b9b5194,Trial,46,0,t_b_6,NULL,NULL,T,NULL,2151
1446581973,d16d77098df28fa17a8c89326b9b5194,Trial,32,0,t_b_6,NULL,NULL,T,NULL,1677
1446581973,d16d77098df28fa17a8c89326b9b5194,Trial,41,0,t_sp_8,NULL,NULL,T,NULL,1028
1446581973,d16d77098df28fa17a8c89326b9b5194,Trial,47,0,t_b_7,NULL,NULL,T,NULL,1843
1446581973,d16d77098df28fa17a8c89326b9b5194,Trial,57,0,t_sp_18,NULL,NULL,T,NULL,1039
1446581973,d16d77098df28fa17a8c89326b9b5194,Trial,47,0,t_b_7,NULL,NULL,T,NULL,1633
1446581973,d16d77098df28fa17a8c89326b9b5194,Trial,52,0,t_sp_5,NULL,NULL,T,NULL,1120
1446581973,d16d77098df28fa17a8c89326b9b5194,Trial,30,0,t_b_1,NULL,NULL,P,NULL,1554
1446581973,d16d77098df28fa17a8c89326b9b5194,Trial,46,0,t_b_6,NULL,NULL,T,NULL,1344
1446581973,d16d77098df28fa17a8c89326b9b5194,Trial,49,0,t_b_9,NULL,NULL,T,NULL,903
1446581973,d16d77098df28fa17a8c89326b9b5194,Trial,50,0,t_b_18,NULL,NULL,T,NULL,700
1446581973,d16d77098df28fa17a8c89326b9b5194,Trial,36,0,t_b_18,NULL,NULL,T,NULL,674
1446581973,d16d77098df28fa17a8c89326b9b5194,Trial,42,0,t_sp_9,NULL,NULL,T,NULL,993
1446581973,d16d77098df28fa17a8c89326b9b5194,Trial,53,0,t_sp_6,NULL,NULL,T,NULL,848
1446581973,d16d77098df28fa17a8c89326b9b5194,Trial,54,0,t_sp_7,NULL,NULL,T,NULL,778
1446581973,d16d77098df28fa17a8c89326b9b5194,Trial,39,0,t_sp_6,NULL,NULL,T,NULL,668
1446581973,d16d77098df28fa17a8c89326b9b5194,Trial,48,0,t_b_8,NULL,NULL,T,NULL,1709
1446581973,d16d77098df28fa17a8c89326b9b5194,Trial,56,0,t_sp_9,NULL,NULL,T,NULL,1909
1446581973,d16d77098df28fa17a8c89326b9b5194,Trial,55,0,t_sp_8,NULL,NULL,T,NULL,1114
1446581973,d16d77098df28fa17a8c89326b9b5194,Trial,45,0,t_b_5,NULL,NULL,NULL,NULL,4390
1446581973,d16d77098df28fa17a8c89326b9b5194,Trial,37,0,t_sp_1,NULL,NULL,P,NULL,1138
1446581973,d16d77098df28fa17a8c89326b9b5194,Trial,44,0,t_b_1,NULL,NULL,P,NULL,1860
1446581973,d16d77098df28fa17a8c89326b9b5194,Trial,35,0,t_b_9,NULL,NULL,T,NULL,2320
1446581973,d16d77098df28fa17a8c89326b9b5194,Trial,38,0,t_sp_5,NULL,NULL,T,NULL,1097
1446581973,d16d77098df28fa17a8c89326b9b5194,Trial,51,0,t_sp_1,NULL,NULL,T,NULL,970
1446581973,d16d77098df28fa17a8c89326b9b5194,Trial,33,0,t_b_7,NULL,NULL,T,NULL,2272
1446581973,d16d77098df28fa17a8c89326b9b5194,Trial,32,0,t_b_6,NULL,NULL,T,NULL,3409
1446581973,d16d77098df28fa17a8c89326b9b5194,Trial,43,0,t_sp_18,NULL,NULL,T,NULL,1598
1446581973,d16d77098df28fa17a8c89326b9b5194,Trial,31,0,t_b_5,NULL,NULL,P,NULL,1899
1446581973,d16d77098df28fa17a8c89326b9b5194,Trial,40,0,t_sp_7,NULL,NULL,T,NULL,2177
1446581973,d16d77098df28fa17a8c89326b9b5194,Trial,34,0,t_b_8,NULL,NULL,T,NULL,1063
1446581973,d16d77098df28fa17a8c89326b9b5194,Trial,57,0,t_sp_18,NULL,NULL,T,NULL,1366
1446581973,d16d77098df28fa17a8c89326b9b5194,Trial,41,0,t_sp_8,NULL,NULL,T,NULL,1110
1446581973,d16d77098df28fa17a8c89326b9b5194,Trial,54,0,t_sp_7,NULL,NULL,T,NULL,1238
1446581973,d16d77098df28fa17a8c89326b9b5194,Trial,40,0,t_sp_7,NULL,NULL,T,NULL,1154
1446581973,d16d77098df28fa17a8c89326b9b5194,Trial,55,0,t_sp_8,NULL,NULL,T,NULL,1141
1446581973,d16d77098df28fa17a8c89326b9b5194,Trial,49,0,t_b_9,NULL,NULL,T,NULL,3233
1446581973,d16d77098df28fa17a8c89326b9b5194,Trial,35,0,t_b_9,NULL,NULL,T,NULL,1176
1446581973,d16d77098df28fa17a8c89326b9b5194,Trial,34,0,t_b_8,NULL,NULL,T,NULL,907
1446581973,d16d77098df28fa17a8c89326b9b5194,Trial,32,0,t_b_6,NULL,NULL,T,NULL,902
1446581973,d16d77098df28fa17a8c89326b9b5194,Trial,57,0,t_sp_18,NULL,NULL,T,NULL,1129
1446581973,d16d77098df28fa17a8c89326b9b5194,Trial,46,0,t_b_6,NULL,NULL,T,NULL,1457
1446581973,d16d77098df28fa17a8c89326b9b5194,Trial,51,0,t_sp_1,NULL,NULL,P,NULL,2609
1446581973,d16d77098df28fa17a8c89326b9b5194,Trial,53,0,t_sp_6,NULL,NULL,T,NULL,3022
1446581973,d16d77098df28fa17a8c89326b9b5194,Trial,39,0,t_sp_6,NULL,NULL,T,NULL,1678
1446581973,d16d77098df28fa17a8c89326b9b5194,Trial,47,0,t_b_7,NULL,NULL,P,NULL,2778
1446581973,d16d77098df28fa17a8c89326b9b5194,Trial,33,0,t_b_7,NULL,NULL,T,NULL,1420
1446581973,d16d77098df28fa17a8c89326b9b5194,Trial,38,0,t_sp_5,NULL,NULL,T,NULL,979
1446581973,d16d77098df28fa17a8c89326b9b5194,Trial,44,0,t_b_1,NULL,NULL,P,NULL,1922
1446581973,d16d77098df28fa17a8c89326b9b5194,Trial,52,0,t_sp_5,NULL,NULL,T,NULL,1185
1446581973,d16d77098df28fa17a8c89326b9b5194,Trial,42,0,t_sp_9,NULL,NULL,T,NULL,2787
1446581973,d16d77098df28fa17a8c89326b9b5194,Trial,41,0,t_sp_8,NULL,NULL,T,NULL,1831
1446581973,d16d77098df28fa17a8c89326b9b5194,Trial,30,0,t_b_1,NULL,NULL,P,NULL,2605
1446581973,d16d77098df28fa17a8c89326b9b5194,Trial,50,0,t_b_18,NULL,NULL,T,NULL,1605
1446581973,d16d77098df28fa17a8c89326b9b5194,Trial,31,0,t_b_5,NULL,NULL,P,NULL,1715
1446581973,d16d77098df28fa17a8c89326b9b5194,Trial,45,0,t_b_5,NULL,NULL,T,NULL,1445
1446581973,d16d77098df28fa17a8c89326b9b5194,Trial,43,0,t_sp_18,NULL,NULL,T,NULL,1070
1446581973,d16d77098df28fa17a8c89326b9b5194,Trial,36,0,t_b_18,NULL,NULL,T,NULL,1063
1446581973,d16d77098df28fa17a8c89326b9b5194,Trial,56,0,t_sp_9,NULL,NULL,T,NULL,1215
1446581973,d16d77098df28fa17a8c89326b9b5194,Trial,48,0,t_b_8,NULL,NULL,T,NULL,1365
1446581973,d16d77098df28fa17a8c89326b9b5194,Trial,37,0,t_sp_1,NULL,NULL,P,NULL,2394
1446581973,d16d77098df28fa17a8c89326b9b5194,Trial,44,0,t_b_1,NULL,NULL,P,NULL,1079
1446581973,d16d77098df28fa17a8c89326b9b5194,Trial,40,0,t_sp_7,NULL,NULL,T,NULL,1670
1446581973,d16d77098df28fa17a8c89326b9b5194,Trial,46,0,t_b_6,NULL,NULL,P,NULL,1950
1446581973,d16d77098df28fa17a8c89326b9b5194,Trial,47,0,t_b_7,NULL,NULL,P,NULL,1522
1446581973,d16d77098df28fa17a8c89326b9b5194,Trial,49,0,t_b_9,NULL,NULL,T,NULL,1657
1446581973,d16d77098df28fa17a8c89326b9b5194,Trial,53,0,t_sp_6,NULL,NULL,T,NULL,1049
1446581973,d16d77098df28fa17a8c89326b9b5194,Trial,55,0,t_sp_8,NULL,NULL,T,NULL,1022
1446581973,d16d77098df28fa17a8c89326b9b5194,Trial,32,0,t_b_6,NULL,NULL,T,NULL,1689
1446581973,d16d77098df28fa17a8c89326b9b5194,Trial,56,0,t_sp_9,NULL,NULL,T,NULL,2345
1446581973,d16d77098df28fa17a8c89326b9b5194,Trial,57,0,t_sp_18,NULL,NULL,NULL,NULL,4411
1446581973,d16d77098df28fa17a8c89326b9b5194,Trial,50,0,t_b_18,NULL,NULL,T,NULL,2129
1446581973,d16d77098df28fa17a8c89326b9b5194,Trial,34,0,t_b_8,NULL,NULL,T,NULL,1235
1446581973,d16d77098df28fa17a8c89326b9b5194,Trial,31,0,t_b_5,NULL,NULL,P,NULL,1359
1446581973,d16d77098df28fa17a8c89326b9b5194,Trial,42,0,t_sp_9,NULL,NULL,T,NULL,1385
1446581973,d16d77098df28fa17a8c89326b9b5194,Trial,41,0,t_sp_8,NULL,NULL,T,NULL,1254
1446581973,d16d77098df28fa17a8c89326b9b5194,Trial,35,0,t_b_9,NULL,NULL,P,NULL,2088
1446581973,d16d77098df28fa17a8c89326b9b5194,Trial,37,0,t_sp_1,NULL,NULL,P,NULL,2392
1446581973,d16d77098df28fa17a8c89326b9b5194,Trial,48,0,t_b_8,NULL,NULL,P,NULL,3180
1446581973,d16d77098df28fa17a8c89326b9b5194,Trial,36,0,t_b_18,NULL,NULL,T,NULL,2076
1446581973,d16d77098df28fa17a8c89326b9b5194,Trial,38,0,t_sp_5,NULL,NULL,T,NULL,1093
1446581973,d16d77098df28fa17a8c89326b9b5194,Trial,54,0,t_sp_7,NULL,NULL,T,NULL,1079
1446581973,d16d77098df28fa17a8c89326b9b5194,Trial,39,0,t_sp_6,NULL,NULL,T,NULL,1087
1446581973,d16d77098df28fa17a8c89326b9b5194,Trial,33,0,t_b_7,NULL,NULL,P,NULL,2537
1446581973,d16d77098df28fa17a8c89326b9b5194,Trial,45,0,t_b_5,NULL,NULL,NULL,NULL,4410
1446581973,d16d77098df28fa17a8c89326b9b5194,Trial,51,0,t_sp_1,NULL,NULL,T,NULL,2205
1446581973,d16d77098df28fa17a8c89326b9b5194,Trial,52,0,t_sp_5,NULL,NULL,P,NULL,1915
1446581973,d16d77098df28fa17a8c89326b9b5194,Trial,43,0,t_sp_18,NULL,NULL,T,NULL,1290
1446581973,d16d77098df28fa17a8c89326b9b5194,Trial,30,0,t_b_1,NULL,NULL,P,NULL,1215
1446581973,d16d77098df28fa17a8c89326b9b5194,Trial,54,0,t_sp_7,NULL,NULL,T,NULL,1155
1446581973,d16d77098df28fa17a8c89326b9b5194,Trial,37,0,t_sp_1,NULL,NULL,T,NULL,1478
1446581973,d16d77098df28fa17a8c89326b9b5194,Trial,36,0,t_b_18,NULL,NULL,P,NULL,2071
1446581973,d16d77098df28fa17a8c89326b9b5194,Trial,55,0,t_sp_8,NULL,NULL,P,NULL,1810
1446581973,d16d77098df28fa17a8c89326b9b5194,Trial,50,0,t_b_18,NULL,NULL,P,NULL,2077
1446581973,d16d77098df28fa17a8c89326b9b5194,Trial,34,0,t_b_8,NULL,NULL,T,NULL,2713
1446581973,d16d77098df28fa17a8c89326b9b5194,Trial,39,0,t_sp_6,NULL,NULL,T,NULL,1203
1446581973,d16d77098df28fa17a8c89326b9b5194,Trial,56,0,t_sp_9,NULL,NULL,T,NULL,1577
1446581973,d16d77098df28fa17a8c89326b9b5194,Trial,47,0,t_b_7,NULL,NULL,P,NULL,2139
1446581973,d16d77098df28fa17a8c89326b9b5194,Trial,41,0,t_sp_8,NULL,NULL,T,NULL,1605
1446581973,d16d77098df28fa17a8c89326b9b5194,Trial,30,0,t_b_1,NULL,NULL,P,NULL,1352
1446581973,d16d77098df28fa17a8c89326b9b5194,Trial,49,0,t_b_9,NULL,NULL,P,NULL,1068
1446581973,d16d77098df28fa17a8c89326b9b5194,Trial,45,0,t_b_5,NULL,NULL,P,NULL,999
1446581973,d16d77098df28fa17a8c89326b9b5194,Trial,43,0,t_sp_18,NULL,NULL,T,NULL,1383
1446581973,d16d77098df28fa17a8c89326b9b5194,Trial,52,0,t_sp_5,NULL,NULL,T,NULL,1740
1446581973,d16d77098df28fa17a8c89326b9b5194,Trial,32,0,t_b_6,NULL,NULL,P,NULL,1743
1446581973,d16d77098df28fa17a8c89326b9b5194,Trial,38,0,t_sp_5,NULL,NULL,P,NULL,2924
1446581973,d16d77098df28fa17a8c89326b9b5194,Trial,57,0,t_sp_18,NULL,NULL,T,NULL,1450
1446581973,d16d77098df28fa17a8c89326b9b5194,Trial,31,0,t_b_5,NULL,NULL,P,NULL,1862
1446581973,d16d77098df28fa17a8c89326b9b5194,Trial,46,0,t_b_6,NULL,NULL,P,NULL,826
1446581973,d16d77098df28fa17a8c89326b9b5194,Trial,44,0,t_b_1,NULL,NULL,P,NULL,799
1446581973,d16d77098df28fa17a8c89326b9b5194,Trial,35,0,t_b_9,NULL,NULL,P,NULL,1385
1446581973,d16d77098df28fa17a8c89326b9b5194,Trial,33,0,t_b_7,NULL,NULL,P,NULL,1417
1446581973,d16d77098df28fa17a8c89326b9b5194,Trial,42,0,t_sp_9,NULL,NULL,T,NULL,999
1446581973,d16d77098df28fa17a8c89326b9b5194,Trial,40,0,t_sp_7,NULL,NULL,T,NULL,986
1446581973,d16d77098df28fa17a8c89326b9b5194,Trial,51,0,t_sp_1,NULL,NULL,T,NULL,2264
1446581973,d16d77098df28fa17a8c89326b9b5194,Trial,53,0,t_sp_6,NULL,NULL,T,NULL,2566
1446581973,d16d77098df28fa17a8c89326b9b5194,Trial,48,0,t_b_8,NULL,NULL,T,NULL,2239
# Columns below this comment are as follows:
# 1. Time results were received.
# 2. MD5 hash of participant's IP address.
# 3. Controller name.
# 4. Item number.
# 5. Element number.
# 6. Type.
# 7. Group.
# 8. Field name.
# 9. Field value.
1446581973,d16d77098df28fa17a8c89326b9b5194,Form,17,0,debrief,NULL,comments,It quickly turns into a challenge because I'm trying to be consistent%2C but it's nonsense sounds.
1446581973,d16d77098df28fa17a8c89326b9b5194,Form,17,0,debrief,NULL,_REACTION_TIME_,52588
1446581973,d16d77098df28fa17a8c89326b9b5194,Form,18,0,exit2,NULL,randomfield,iVsBvw2d
1446581973,d16d77098df28fa17a8c89326b9b5194,Form,18,0,exit2,NULL,worker_id,A3NB806QUINGG4
1446581973,d16d77098df28fa17a8c89326b9b5194,Form,18,0,exit2,NULL,identifier,iVsBvw2d
1446581973,d16d77098df28fa17a8c89326b9b5194,Form,18,0,exit2,NULL,_REACTION_TIME_,15224
#
# Results on Tuesday November 03 2015 20:31:37 UTC.
# USER AGENT: Mozilla/5.0 (Windows NT 6.3; Win64; x64) AppleWebKit/537.36 (KHTML, like Gecko) Chrome/46.0.2490.80 Safari/537.36
# Design number was non-random = 0
#
# Columns below this comment are as follows:
# 1. Time results were received.
# 2. MD5 hash of participant's IP address.
# 3. Controller name.
# 4. Item number.
# 5. Element number.
# 6. Type.
# 7. Group.
# 8. Field name.
# 9. Field value.
1446582698,62c8827b6be04510667a4a680f72f723,Form,2,0,intro,NULL,consentanswer,ptP,T
1446582698,62c8827b6be04510667a4a680f72f723,Form,2,0,intro,NULL,_REACTION_TIME_,11988
1446582698,62c8827b6be04510667a4a680f72f723,Form,3,0,questionnaire,NULL,write_something,
1446582698,62c8827b6be04510667a4a680f72f723,Form,3,0,questionnaire,NULL,NatLang,eng
1446582698,62c8827b6be04510667a4a680f72f723,Form,3,0,questionnaire,NULL,disorder,disorderno
1446582698,62c8827b6be04510667a4a680f72f723,Form,3,0,questionnaire,NULL,_REACTION_TIME_,7225
1446582698,62c8827b6be04510667a4a680f72f723,Form,4,0,headphones,NULL,headphonebrand,cyber acoustics
1446582698,62c8827b6be04510667a4a680f72f723,Form,4,0,headphones,NULL,headphonemodel,cyber acoustics
1446582698,62c8827b6be04510667a4a680f72f723,Form,4,0,headphones,NULL,headphoneyesno,headphoneyes
1446582698,62c8827b6be04510667a4a680f72f723,Form,4,0,headphones,NULL,_REACTION_TIME_,18831
# Columns below this comment are as follows:
# 1. Time results were received.
# 2. MD5 hash of participant's IP address.
# 3. Controller name.
# 4. Item number.
# 5. Element number.
# 6. Type.
# 7. Group.
# 8. Question (NULL if none).
# 9. Answer.
# 10. Whether or not answer was correct (NULL if N/A).
# 11. Time taken to answer.
1446582698,62c8827b6be04510667a4a680f72f723,Trial,23,0,pnt_b_18,NULL,&nbsp;&nbsp;&nbsp;&nbsp;click on the sound,T,NULL,4508
1446582698,62c8827b6be04510667a4a680f72f723,Trial,24,0,pnt_sp_1,NULL,&nbsp;&nbsp;&nbsp;&nbsp;click on the sound,P,NULL,2247
1446582698,62c8827b6be04510667a4a680f72f723,Trial,22,0,pnt_b_1,NULL,&nbsp;&nbsp;&nbsp;&nbsp;click on the sound,P,NULL,1581
1446582698,62c8827b6be04510667a4a680f72f723,Trial,25,0,pnt_sp_18,NULL,&nbsp;&nbsp;&nbsp;&nbsp;click on the sound,T,NULL,1442
1446582698,62c8827b6be04510667a4a680f72f723,Trial,26,0,pto_sp_1,NULL,&nbsp;&nbsp;&nbsp;&nbsp;click on the sound,P,NULL,1057
1446582698,62c8827b6be04510667a4a680f72f723,Trial,27,0,pto_sp_18,NULL,&nbsp;&nbsp;&nbsp;&nbsp;click on the sound,T,NULL,962
1446582698,62c8827b6be04510667a4a680f72f723,Trial,28,0,pto_b_1,NULL,&nbsp;&nbsp;&nbsp;&nbsp;click on the sound,P,NULL,1424
1446582698,62c8827b6be04510667a4a680f72f723,Trial,29,0,pto_b_18,NULL,&nbsp;&nbsp;&nbsp;&nbsp;click on the sound,T,NULL,1149
1446582698,62c8827b6be04510667a4a680f72f723,Trial,42,0,t_sp_9,NULL,NULL,P,NULL,2080
1446582698,62c8827b6be04510667a4a680f72f723,Trial,36,0,t_b_18,NULL,NULL,T,NULL,1139
1446582698,62c8827b6be04510667a4a680f72f723,Trial,51,0,t_sp_1,NULL,NULL,T,NULL,1232
1446582698,62c8827b6be04510667a4a680f72f723,Trial,50,0,t_b_18,NULL,NULL,T,NULL,1260
1446582698,62c8827b6be04510667a4a680f72f723,Trial,34,0,t_b_8,NULL,NULL,P,NULL,1748
1446582698,62c8827b6be04510667a4a680f72f723,Trial,49,0,t_b_9,NULL,NULL,P,NULL,1356
1446582698,62c8827b6be04510667a4a680f72f723,Trial,44,0,t_b_1,NULL,NULL,P,NULL,1278
1446582698,62c8827b6be04510667a4a680f72f723,Trial,53,0,t_sp_6,NULL,NULL,T,NULL,1355
1446582698,62c8827b6be04510667a4a680f72f723,Trial,46,0,t_b_6,NULL,NULL,P,NULL,1404
1446582698,62c8827b6be04510667a4a680f72f723,Trial,57,0,t_sp_18,NULL,NULL,T,NULL,1128
1446582698,62c8827b6be04510667a4a680f72f723,Trial,55,0,t_sp_8,NULL,NULL,P,NULL,1665
1446582698,62c8827b6be04510667a4a680f72f723,Trial,56,0,t_sp_9,NULL,NULL,T,NULL,1206
1446582698,62c8827b6be04510667a4a680f72f723,Trial,48,0,t_b_8,NULL,NULL,P,NULL,1171
1446582698,62c8827b6be04510667a4a680f72f723,Trial,52,0,t_sp_5,NULL,NULL,P,NULL,2192
1446582698,62c8827b6be04510667a4a680f72f723,Trial,30,0,t_b_1,NULL,NULL,P,NULL,1300
1446582698,62c8827b6be04510667a4a680f72f723,Trial,47,0,t_b_7,NULL,NULL,T,NULL,1788
1446582698,62c8827b6be04510667a4a680f72f723,Trial,41,0,t_sp_8,NULL,NULL,T,NULL,1353
1446582698,62c8827b6be04510667a4a680f72f723,Trial,43,0,t_sp_18,NULL,NULL,T,NULL,1164
1446582698,62c8827b6be04510667a4a680f72f723,Trial,37,0,t_sp_1,NULL,NULL,P,NULL,1676
1446582698,62c8827b6be04510667a4a680f72f723,Trial,39,0,t_sp_6,NULL,NULL,P,NULL,1916
1446582698,62c8827b6be04510667a4a680f72f723,Trial,54,0,t_sp_7,NULL,NULL,P,NULL,1647
1446582698,62c8827b6be04510667a4a680f72f723,Trial,31,0,t_b_5,NULL,NULL,P,NULL,1636
1446582698,62c8827b6be04510667a4a680f72f723,Trial,33,0,t_b_7,NULL,NULL,P,NULL,1764
1446582698,62c8827b6be04510667a4a680f72f723,Trial,32,0,t_b_6,NULL,NULL,T,NULL,1981
1446582698,62c8827b6be04510667a4a680f72f723,Trial,45,0,t_b_5,NULL,NULL,P,NULL,1164
1446582698,62c8827b6be04510667a4a680f72f723,Trial,40,0,t_sp_7,NULL,NULL,P,NULL,1752
1446582698,62c8827b6be04510667a4a680f72f723,Trial,35,0,t_b_9,NULL,NULL,P,NULL,1242
1446582698,62c8827b6be04510667a4a680f72f723,Trial,38,0,t_sp_5,NULL,NULL,T,NULL,1299
1446582698,62c8827b6be04510667a4a680f72f723,Trial,42,0,t_sp_9,NULL,NULL,T,NULL,2897
1446582698,62c8827b6be04510667a4a680f72f723,Trial,39,0,t_sp_6,NULL,NULL,T,NULL,1181
1446582698,62c8827b6be04510667a4a680f72f723,Trial,41,0,t_sp_8,NULL,NULL,P,NULL,1684
1446582698,62c8827b6be04510667a4a680f72f723,Trial,38,0,t_sp_5,NULL,NULL,P,NULL,1191
1446582698,62c8827b6be04510667a4a680f72f723,Trial,35,0,t_b_9,NULL,NULL,P,NULL,1390
1446582698,62c8827b6be04510667a4a680f72f723,Trial,45,0,t_b_5,NULL,NULL,P,NULL,1043
1446582698,62c8827b6be04510667a4a680f72f723,Trial,34,0,t_b_8,NULL,NULL,P,NULL,1169
1446582698,62c8827b6be04510667a4a680f72f723,Trial,33,0,t_b_7,NULL,NULL,P,NULL,1216
1446582698,62c8827b6be04510667a4a680f72f723,Trial,30,0,t_b_1,NULL,NULL,P,NULL,1144
1446582698,62c8827b6be04510667a4a680f72f723,Trial,48,0,t_b_8,NULL,NULL,P,NULL,1123
1446582698,62c8827b6be04510667a4a680f72f723,Trial,32,0,t_b_6,NULL,NULL,T,NULL,1311
1446582698,62c8827b6be04510667a4a680f72f723,Trial,56,0,t_sp_9,NULL,NULL,T,NULL,1213
1446582698,62c8827b6be04510667a4a680f72f723,Trial,53,0,t_sp_6,NULL,NULL,T,NULL,2050
1446582698,62c8827b6be04510667a4a680f72f723,Trial,37,0,t_sp_1,NULL,NULL,T,NULL,1453
1446582698,62c8827b6be04510667a4a680f72f723,Trial,44,0,t_b_1,NULL,NULL,P,NULL,1021
1446582698,62c8827b6be04510667a4a680f72f723,Trial,36,0,t_b_18,NULL,NULL,T,NULL,1171
1446582698,62c8827b6be04510667a4a680f72f723,Trial,50,0,t_b_18,NULL,NULL,T,NULL,1050
1446582698,62c8827b6be04510667a4a680f72f723,Trial,54,0,t_sp_7,NULL,NULL,T,NULL,1247
1446582698,62c8827b6be04510667a4a680f72f723,Trial,49,0,t_b_9,NULL,NULL,P,NULL,976
1446582698,62c8827b6be04510667a4a680f72f723,Trial,55,0,t_sp_8,NULL,NULL,T,NULL,1062
1446582698,62c8827b6be04510667a4a680f72f723,Trial,47,0,t_b_7,NULL,NULL,T,NULL,1709
1446582698,62c8827b6be04510667a4a680f72f723,Trial,57,0,t_sp_18,NULL,NULL,T,NULL,1323
1446582698,62c8827b6be04510667a4a680f72f723,Trial,52,0,t_sp_5,NULL,NULL,P,NULL,1353
1446582698,62c8827b6be04510667a4a680f72f723,Trial,43,0,t_sp_18,NULL,NULL,T,NULL,1126
1446582698,62c8827b6be04510667a4a680f72f723,Trial,40,0,t_sp_7,NULL,NULL,T,NULL,1163
1446582698,62c8827b6be04510667a4a680f72f723,Trial,51,0,t_sp_1,NULL,NULL,P,NULL,1239
1446582698,62c8827b6be04510667a4a680f72f723,Trial,46,0,t_b_6,NULL,NULL,P,NULL,1309
1446582698,62c8827b6be04510667a4a680f72f723,Trial,31,0,t_b_5,NULL,NULL,P,NULL,1049
1446582698,62c8827b6be04510667a4a680f72f723,Trial,49,0,t_b_9,NULL,NULL,P,NULL,1413
1446582698,62c8827b6be04510667a4a680f72f723,Trial,42,0,t_sp_9,NULL,NULL,T,NULL,1231
1446582698,62c8827b6be04510667a4a680f72f723,Trial,53,0,t_sp_6,NULL,NULL,P,NULL,1428
1446582698,62c8827b6be04510667a4a680f72f723,Trial,51,0,t_sp_1,NULL,NULL,T,NULL,1223
1446582698,62c8827b6be04510667a4a680f72f723,Trial,50,0,t_b_18,NULL,NULL,P,NULL,1032
1446582698,62c8827b6be04510667a4a680f72f723,Trial,40,0,t_sp_7,NULL,NULL,P,NULL,1741
1446582698,62c8827b6be04510667a4a680f72f723,Trial,55,0,t_sp_8,NULL,NULL,P,NULL,1582
1446582698,62c8827b6be04510667a4a680f72f723,Trial,30,0,t_b_1,NULL,NULL,P,NULL,1375
1446582698,62c8827b6be04510667a4a680f72f723,Trial,56,0,t_sp_9,NULL,NULL,T,NULL,1128
1446582698,62c8827b6be04510667a4a680f72f723,Trial,48,0,t_b_8,NULL,NULL,P,NULL,1815
1446582698,62c8827b6be04510667a4a680f72f723,Trial,57,0,t_sp_18,NULL,NULL,T,NULL,1285
1446582698,62c8827b6be04510667a4a680f72f723,Trial,43,0,t_sp_18,NULL,NULL,T,NULL,1218
1446582698,62c8827b6be04510667a4a680f72f723,Trial,33,0,t_b_7,NULL,NULL,T,NULL,1465
1446582698,62c8827b6be04510667a4a680f72f723,Trial,35,0,t_b_9,NULL,NULL,P,NULL,981
1446582698,62c8827b6be04510667a4a680f72f723,Trial,41,0,t_sp_8,NULL,NULL,P,NULL,1165
1446582698,62c8827b6be04510667a4a680f72f723,Trial,39,0,t_sp_6,NULL,NULL,T,NULL,1151
1446582698,62c8827b6be04510667a4a680f72f723,Trial,44,0,t_b_1,NULL,NULL,P,NULL,1035
1446582698,62c8827b6be04510667a4a680f72f723,Trial,31,0,t_b_5,NULL,NULL,P,NULL,1321
1446582698,62c8827b6be04510667a4a680f72f723,Trial,47,0,t_b_7,NULL,NULL,T,NULL,1127
1446582698,62c8827b6be04510667a4a680f72f723,Trial,54,0,t_sp_7,NULL,NULL,T,NULL,1059
1446582698,62c8827b6be04510667a4a680f72f723,Trial,34,0,t_b_8,NULL,NULL,P,NULL,1097
1446582698,62c8827b6be04510667a4a680f72f723,Trial,38,0,t_sp_5,NULL,NULL,T,NULL,1233
1446582698,62c8827b6be04510667a4a680f72f723,Trial,45,0,t_b_5,NULL,NULL,T,NULL,939
1446582698,62c8827b6be04510667a4a680f72f723,Trial,37,0,t_sp_1,NULL,NULL,P,NULL,1074
1446582698,62c8827b6be04510667a4a680f72f723,Trial,52,0,t_sp_5,NULL,NULL,P,NULL,1085
1446582698,62c8827b6be04510667a4a680f72f723,Trial,32,0,t_b_6,NULL,NULL,P,NULL,1222
1446582698,62c8827b6be04510667a4a680f72f723,Trial,46,0,t_b_6,NULL,NULL,T,NULL,903
1446582698,62c8827b6be04510667a4a680f72f723,Trial,36,0,t_b_18,NULL,NULL,P,NULL,1148
1446582698,62c8827b6be04510667a4a680f72f723,Trial,42,0,t_sp_9,NULL,NULL,T,NULL,1047
1446582698,62c8827b6be04510667a4a680f72f723,Trial,31,0,t_b_5,NULL,NULL,P,NULL,1470
1446582698,62c8827b6be04510667a4a680f72f723,Trial,54,0,t_sp_7,NULL,NULL,T,NULL,1107
1446582698,62c8827b6be04510667a4a680f72f723,Trial,50,0,t_b_18,NULL,NULL,T,NULL,1480
1446582698,62c8827b6be04510667a4a680f72f723,Trial,34,0,t_b_8,NULL,NULL,P,NULL,1999
1446582698,62c8827b6be04510667a4a680f72f723,Trial,35,0,t_b_9,NULL,NULL,P,NULL,1805
1446582698,62c8827b6be04510667a4a680f72f723,Trial,48,0,t_b_8,NULL,NULL,T,NULL,950
1446582698,62c8827b6be04510667a4a680f72f723,Trial,53,0,t_sp_6,NULL,NULL,T,NULL,1133
1446582698,62c8827b6be04510667a4a680f72f723,Trial,56,0,t_sp_9,NULL,NULL,T,NULL,1212
1446582698,62c8827b6be04510667a4a680f72f723,Trial,52,0,t_sp_5,NULL,NULL,T,NULL,1765
1446582698,62c8827b6be04510667a4a680f72f723,Trial,36,0,t_b_18,NULL,NULL,P,NULL,963
1446582698,62c8827b6be04510667a4a680f72f723,Trial,47,0,t_b_7,NULL,NULL,T,NULL,1721
1446582698,62c8827b6be04510667a4a680f72f723,Trial,44,0,t_b_1,NULL,NULL,P,NULL,984
1446582698,62c8827b6be04510667a4a680f72f723,Trial,33,0,t_b_7,NULL,NULL,P,NULL,1061
1446582698,62c8827b6be04510667a4a680f72f723,Trial,57,0,t_sp_18,NULL,NULL,T,NULL,1201
1446582698,62c8827b6be04510667a4a680f72f723,Trial,49,0,t_b_9,NULL,NULL,P,NULL,1301
1446582698,62c8827b6be04510667a4a680f72f723,Trial,30,0,t_b_1,NULL,NULL,P,NULL,1061
1446582698,62c8827b6be04510667a4a680f72f723,Trial,40,0,t_sp_7,NULL,NULL,P,NULL,1504
1446582698,62c8827b6be04510667a4a680f72f723,Trial,51,0,t_sp_1,NULL,NULL,T,NULL,1952
1446582698,62c8827b6be04510667a4a680f72f723,Trial,46,0,t_b_6,NULL,NULL,P,NULL,1885
1446582698,62c8827b6be04510667a4a680f72f723,Trial,55,0,t_sp_8,NULL,NULL,T,NULL,1076
1446582698,62c8827b6be04510667a4a680f72f723,Trial,45,0,t_b_5,NULL,NULL,P,NULL,1085
1446582698,62c8827b6be04510667a4a680f72f723,Trial,41,0,t_sp_8,NULL,NULL,P,NULL,1488
1446582698,62c8827b6be04510667a4a680f72f723,Trial,39,0,t_sp_6,NULL,NULL,P,NULL,1538
1446582698,62c8827b6be04510667a4a680f72f723,Trial,37,0,t_sp_1,NULL,NULL,P,NULL,1388
1446582698,62c8827b6be04510667a4a680f72f723,Trial,43,0,t_sp_18,NULL,NULL,T,NULL,1840
1446582698,62c8827b6be04510667a4a680f72f723,Trial,32,0,t_b_6,NULL,NULL,T,NULL,1176
1446582698,62c8827b6be04510667a4a680f72f723,Trial,38,0,t_sp_5,NULL,NULL,T,NULL,1171
1446582698,62c8827b6be04510667a4a680f72f723,Trial,33,0,t_b_7,NULL,NULL,T,NULL,1873
1446582698,62c8827b6be04510667a4a680f72f723,Trial,46,0,t_b_6,NULL,NULL,P,NULL,1483
1446582698,62c8827b6be04510667a4a680f72f723,Trial,42,0,t_sp_9,NULL,NULL,T,NULL,1392
1446582698,62c8827b6be04510667a4a680f72f723,Trial,38,0,t_sp_5,NULL,NULL,T,NULL,1196
1446582698,62c8827b6be04510667a4a680f72f723,Trial,35,0,t_b_9,NULL,NULL,P,NULL,1290
1446582698,62c8827b6be04510667a4a680f72f723,Trial,53,0,t_sp_6,NULL,NULL,P,NULL,1078
1446582698,62c8827b6be04510667a4a680f72f723,Trial,51,0,t_sp_1,NULL,NULL,T,NULL,1122
1446582698,62c8827b6be04510667a4a680f72f723,Trial,30,0,t_b_1,NULL,NULL,P,NULL,1400
1446582698,62c8827b6be04510667a4a680f72f723,Trial,55,0,t_sp_8,NULL,NULL,T,NULL,1160
1446582698,62c8827b6be04510667a4a680f72f723,Trial,36,0,t_b_18,NULL,NULL,T,NULL,1677
1446582698,62c8827b6be04510667a4a680f72f723,Trial,41,0,t_sp_8,NULL,NULL,P,NULL,1652
1446582698,62c8827b6be04510667a4a680f72f723,Trial,39,0,t_sp_6,NULL,NULL,P,NULL,1713
1446582698,62c8827b6be04510667a4a680f72f723,Trial,43,0,t_sp_18,NULL,NULL,P,NULL,1940
1446582698,62c8827b6be04510667a4a680f72f723,Trial,50,0,t_b_18,NULL,NULL,P,NULL,1305
1446582698,62c8827b6be04510667a4a680f72f723,Trial,52,0,t_sp_5,NULL,NULL,P,NULL,1524
1446582698,62c8827b6be04510667a4a680f72f723,Trial,54,0,t_sp_7,NULL,NULL,P,NULL,1611
1446582698,62c8827b6be04510667a4a680f72f723,Trial,56,0,t_sp_9,NULL,NULL,T,NULL,1423
1446582698,62c8827b6be04510667a4a680f72f723,Trial,37,0,t_sp_1,NULL,NULL,T,NULL,951
1446582698,62c8827b6be04510667a4a680f72f723,Trial,32,0,t_b_6,NULL,NULL,T,NULL,1715
1446582698,62c8827b6be04510667a4a680f72f723,Trial,49,0,t_b_9,NULL,NULL,T,NULL,1304
1446582698,62c8827b6be04510667a4a680f72f723,Trial,40,0,t_sp_7,NULL,NULL,P,NULL,1234
1446582698,62c8827b6be04510667a4a680f72f723,Trial,45,0,t_b_5,NULL,NULL,P,NULL,1413
1446582698,62c8827b6be04510667a4a680f72f723,Trial,48,0,t_b_8,NULL,NULL,P,NULL,1564
1446582698,62c8827b6be04510667a4a680f72f723,Trial,31,0,t_b_5,NULL,NULL,P,NULL,2472
1446582698,62c8827b6be04510667a4a680f72f723,Trial,44,0,t_b_1,NULL,NULL,T,NULL,1014
1446582698,62c8827b6be04510667a4a680f72f723,Trial,57,0,t_sp_18,NULL,NULL,T,NULL,1239
1446582698,62c8827b6be04510667a4a680f72f723,Trial,47,0,t_b_7,NULL,NULL,P,NULL,1118
1446582698,62c8827b6be04510667a4a680f72f723,Trial,34,0,t_b_8,NULL,NULL,T,NULL,1096
1446582698,62c8827b6be04510667a4a680f72f723,Trial,37,0,t_sp_1,NULL,NULL,T,NULL,1179
1446582698,62c8827b6be04510667a4a680f72f723,Trial,41,0,t_sp_8,NULL,NULL,P,NULL,1091
1446582698,62c8827b6be04510667a4a680f72f723,Trial,45,0,t_b_5,NULL,NULL,T,NULL,1218
1446582698,62c8827b6be04510667a4a680f72f723,Trial,56,0,t_sp_9,NULL,NULL,T,NULL,1445
1446582698,62c8827b6be04510667a4a680f72f723,Trial,40,0,t_sp_7,NULL,NULL,P,NULL,1273
1446582698,62c8827b6be04510667a4a680f72f723,Trial,48,0,t_b_8,NULL,NULL,T,NULL,1450
1446582698,62c8827b6be04510667a4a680f72f723,Trial,43,0,t_sp_18,NULL,NULL,T,NULL,1585
1446582698,62c8827b6be04510667a4a680f72f723,Trial,31,0,t_b_5,NULL,NULL,P,NULL,1026
1446582698,62c8827b6be04510667a4a680f72f723,Trial,51,0,t_sp_1,NULL,NULL,P,NULL,1707
1446582698,62c8827b6be04510667a4a680f72f723,Trial,33,0,t_b_7,NULL,NULL,P,NULL,1092
1446582698,62c8827b6be04510667a4a680f72f723,Trial,53,0,t_sp_6,NULL,NULL,P,NULL,1190
1446582698,62c8827b6be04510667a4a680f72f723,Trial,34,0,t_b_8,NULL,NULL,P,NULL,1717
1446582698,62c8827b6be04510667a4a680f72f723,Trial,55,0,t_sp_8,NULL,NULL,P,NULL,1513
1446582698,62c8827b6be04510667a4a680f72f723,Trial,50,0,t_b_18,NULL,NULL,T,NULL,1165
1446582698,62c8827b6be04510667a4a680f72f723,Trial,36,0,t_b_18,NULL,NULL,T,NULL,1017
1446582698,62c8827b6be04510667a4a680f72f723,Trial,30,0,t_b_1,NULL,NULL,P,NULL,1190
1446582698,62c8827b6be04510667a4a680f72f723,Trial,42,0,t_sp_9,NULL,NULL,P,NULL,1281
1446582698,62c8827b6be04510667a4a680f72f723,Trial,32,0,t_b_6,NULL,NULL,T,NULL,1288
1446582698,62c8827b6be04510667a4a680f72f723,Trial,47,0,t_b_7,NULL,NULL,T,NULL,1472
1446582698,62c8827b6be04510667a4a680f72f723,Trial,57,0,t_sp_18,NULL,NULL,T,NULL,1572
1446582698,62c8827b6be04510667a4a680f72f723,Trial,54,0,t_sp_7,NULL,NULL,P,NULL,1181
1446582698,62c8827b6be04510667a4a680f72f723,Trial,49,0,t_b_9,NULL,NULL,P,NULL,969
1446582698,62c8827b6be04510667a4a680f72f723,Trial,44,0,t_b_1,NULL,NULL,P,NULL,1605
1446582698,62c8827b6be04510667a4a680f72f723,Trial,46,0,t_b_6,NULL,NULL,P,NULL,1348
1446582698,62c8827b6be04510667a4a680f72f723,Trial,52,0,t_sp_5,NULL,NULL,T,NULL,1174
1446582698,62c8827b6be04510667a4a680f72f723,Trial,39,0,t_sp_6,NULL,NULL,P,NULL,1362
1446582698,62c8827b6be04510667a4a680f72f723,Trial,38,0,t_sp_5,NULL,NULL,P,NULL,1142
1446582698,62c8827b6be04510667a4a680f72f723,Trial,35,0,t_b_9,NULL,NULL,P,NULL,1082
1446582698,62c8827b6be04510667a4a680f72f723,Trial,43,0,t_sp_18,NULL,NULL,P,NULL,1521
1446582698,62c8827b6be04510667a4a680f72f723,Trial,50,0,t_b_18,NULL,NULL,T,NULL,1512
1446582698,62c8827b6be04510667a4a680f72f723,Trial,46,0,t_b_6,NULL,NULL,T,NULL,1112
1446582698,62c8827b6be04510667a4a680f72f723,Trial,57,0,t_sp_18,NULL,NULL,T,NULL,1479
1446582698,62c8827b6be04510667a4a680f72f723,Trial,55,0,t_sp_8,NULL,NULL,P,NULL,919
1446582698,62c8827b6be04510667a4a680f72f723,Trial,30,0,t_b_1,NULL,NULL,P,NULL,829
1446582698,62c8827b6be04510667a4a680f72f723,Trial,48,0,t_b_8,NULL,NULL,P,NULL,963
1446582698,62c8827b6be04510667a4a680f72f723,Trial,33,0,t_b_7,NULL,NULL,P,NULL,1337
1446582698,62c8827b6be04510667a4a680f72f723,Trial,35,0,t_b_9,NULL,NULL,P,NULL,1067
1446582698,62c8827b6be04510667a4a680f72f723,Trial,45,0,t_b_5,NULL,NULL,T,NULL,2140
1446582698,62c8827b6be04510667a4a680f72f723,Trial,54,0,t_sp_7,NULL,NULL,T,NULL,1074
1446582698,62c8827b6be04510667a4a680f72f723,Trial,52,0,t_sp_5,NULL,NULL,P,NULL,1786
1446582698,62c8827b6be04510667a4a680f72f723,Trial,41,0,t_sp_8,NULL,NULL,P,NULL,1387
1446582698,62c8827b6be04510667a4a680f72f723,Trial,34,0,t_b_8,NULL,NULL,P,NULL,1149
1446582698,62c8827b6be04510667a4a680f72f723,Trial,51,0,t_sp_1,NULL,NULL,P,NULL,1330
1446582698,62c8827b6be04510667a4a680f72f723,Trial,53,0,t_sp_6,NULL,NULL,P,NULL,1365
1446582698,62c8827b6be04510667a4a680f72f723,Trial,40,0,t_sp_7,NULL,NULL,T,NULL,1622
1446582698,62c8827b6be04510667a4a680f72f723,Trial,31,0,t_b_5,NULL,NULL,P,NULL,1235
1446582698,62c8827b6be04510667a4a680f72f723,Trial,56,0,t_sp_9,NULL,NULL,T,NULL,1186
1446582698,62c8827b6be04510667a4a680f72f723,Trial,42,0,t_sp_9,NULL,NULL,P,NULL,1797
1446582698,62c8827b6be04510667a4a680f72f723,Trial,49,0,t_b_9,NULL,NULL,T,NULL,1589
1446582698,62c8827b6be04510667a4a680f72f723,Trial,32,0,t_b_6,NULL,NULL,P,NULL,1038
1446582698,62c8827b6be04510667a4a680f72f723,Trial,39,0,t_sp_6,NULL,NULL,T,NULL,1293
1446582698,62c8827b6be04510667a4a680f72f723,Trial,44,0,t_b_1,NULL,NULL,P,NULL,1319
1446582698,62c8827b6be04510667a4a680f72f723,Trial,36,0,t_b_18,NULL,NULL,P,NULL,1097
1446582698,62c8827b6be04510667a4a680f72f723,Trial,38,0,t_sp_5,NULL,NULL,T,NULL,1850
1446582698,62c8827b6be04510667a4a680f72f723,Trial,37,0,t_sp_1,NULL,NULL,T,NULL,1171
1446582698,62c8827b6be04510667a4a680f72f723,Trial,47,0,t_b_7,NULL,NULL,P,NULL,1112
1446582698,62c8827b6be04510667a4a680f72f723,Trial,52,0,t_sp_5,NULL,NULL,P,NULL,982
1446582698,62c8827b6be04510667a4a680f72f723,Trial,30,0,t_b_1,NULL,NULL,P,NULL,1353
1446582698,62c8827b6be04510667a4a680f72f723,Trial,32,0,t_b_6,NULL,NULL,P,NULL,1555
1446582698,62c8827b6be04510667a4a680f72f723,Trial,55,0,t_sp_8,NULL,NULL,P,NULL,2054
1446582698,62c8827b6be04510667a4a680f72f723,Trial,37,0,t_sp_1,NULL,NULL,T,NULL,1036
1446582698,62c8827b6be04510667a4a680f72f723,Trial,49,0,t_b_9,NULL,NULL,P,NULL,1897
1446582698,62c8827b6be04510667a4a680f72f723,Trial,42,0,t_sp_9,NULL,NULL,P,NULL,1235
1446582698,62c8827b6be04510667a4a680f72f723,Trial,31,0,t_b_5,NULL,NULL,P,NULL,1211
1446582698,62c8827b6be04510667a4a680f72f723,Trial,48,0,t_b_8,NULL,NULL,P,NULL,1465
1446582698,62c8827b6be04510667a4a680f72f723,Trial,47,0,t_b_7,NULL,NULL,P,NULL,2316
1446582698,62c8827b6be04510667a4a680f72f723,Trial,46,0,t_b_6,NULL,NULL,P,NULL,2803
1446582698,62c8827b6be04510667a4a680f72f723,Trial,43,0,t_sp_18,NULL,NULL,T,NULL,1168
1446582698,62c8827b6be04510667a4a680f72f723,Trial,34,0,t_b_8,NULL,NULL,P,NULL,1476
1446582698,62c8827b6be04510667a4a680f72f723,Trial,33,0,t_b_7,NULL,NULL,P,NULL,1163
1446582698,62c8827b6be04510667a4a680f72f723,Trial,39,0,t_sp_6,NULL,NULL,P,NULL,2558
1446582698,62c8827b6be04510667a4a680f72f723,Trial,57,0,t_sp_18,NULL,NULL,P,NULL,1433
1446582698,62c8827b6be04510667a4a680f72f723,Trial,44,0,t_b_1,NULL,NULL,P,NULL,2787
1446582698,62c8827b6be04510667a4a680f72f723,Trial,54,0,t_sp_7,NULL,NULL,P,NULL,1192
1446582698,62c8827b6be04510667a4a680f72f723,Trial,40,0,t_sp_7,NULL,NULL,P,NULL,1229
1446582698,62c8827b6be04510667a4a680f72f723,Trial,45,0,t_b_5,NULL,NULL,T,NULL,1184
1446582698,62c8827b6be04510667a4a680f72f723,Trial,50,0,t_b_18,NULL,NULL,P,NULL,1701
1446582698,62c8827b6be04510667a4a680f72f723,Trial,36,0,t_b_18,NULL,NULL,P,NULL,1197
1446582698,62c8827b6be04510667a4a680f72f723,Trial,51,0,t_sp_1,NULL,NULL,T,NULL,1238
1446582698,62c8827b6be04510667a4a680f72f723,Trial,38,0,t_sp_5,NULL,NULL,P,NULL,1450
1446582698,62c8827b6be04510667a4a680f72f723,Trial,41,0,t_sp_8,NULL,NULL,P,NULL,1097
1446582698,62c8827b6be04510667a4a680f72f723,Trial,35,0,t_b_9,NULL,NULL,P,NULL,1672
1446582698,62c8827b6be04510667a4a680f72f723,Trial,56,0,t_sp_9,NULL,NULL,T,NULL,1099
1446582698,62c8827b6be04510667a4a680f72f723,Trial,53,0,t_sp_6,NULL,NULL,T,NULL,1407
1446582698,62c8827b6be04510667a4a680f72f723,Trial,43,0,t_sp_18,NULL,NULL,T,NULL,1474
1446582698,62c8827b6be04510667a4a680f72f723,Trial,47,0,t_b_7,NULL,NULL,P,NULL,1591
1446582698,62c8827b6be04510667a4a680f72f723,Trial,51,0,t_sp_1,NULL,NULL,P,NULL,1386
1446582698,62c8827b6be04510667a4a680f72f723,Trial,45,0,t_b_5,NULL,NULL,P,NULL,925
1446582698,62c8827b6be04510667a4a680f72f723,Trial,54,0,t_sp_7,NULL,NULL,T,NULL,1096
1446582698,62c8827b6be04510667a4a680f72f723,Trial,53,0,t_sp_6,NULL,NULL,T,NULL,1373
1446582698,62c8827b6be04510667a4a680f72f723,Trial,41,0,t_sp_8,NULL,NULL,T,NULL,1113
1446582698,62c8827b6be04510667a4a680f72f723,Trial,32,0,t_b_6,NULL,NULL,P,NULL,929
1446582698,62c8827b6be04510667a4a680f72f723,Trial,30,0,t_b_1,NULL,NULL,P,NULL,863
1446582698,62c8827b6be04510667a4a680f72f723,Trial,40,0,t_sp_7,NULL,NULL,T,NULL,1325
1446582698,62c8827b6be04510667a4a680f72f723,Trial,37,0,t_sp_1,NULL,NULL,T,NULL,1365
1446582698,62c8827b6be04510667a4a680f72f723,Trial,50,0,t_b_18,NULL,NULL,T,NULL,1258
1446582698,62c8827b6be04510667a4a680f72f723,Trial,38,0,t_sp_5,NULL,NULL,T,NULL,1406
1446582698,62c8827b6be04510667a4a680f72f723,Trial,34,0,t_b_8,NULL,NULL,P,NULL,1186
1446582698,62c8827b6be04510667a4a680f72f723,Trial,31,0,t_b_5,NULL,NULL,P,NULL,1029
1446582698,62c8827b6be04510667a4a680f72f723,Trial,39,0,t_sp_6,NULL,NULL,T,NULL,1123
1446582698,62c8827b6be04510667a4a680f72f723,Trial,33,0,t_b_7,NULL,NULL,P,NULL,1302
1446582698,62c8827b6be04510667a4a680f72f723,Trial,55,0,t_sp_8,NULL,NULL,T,NULL,1167
1446582698,62c8827b6be04510667a4a680f72f723,Trial,48,0,t_b_8,NULL,NULL,P,NULL,1100
1446582698,62c8827b6be04510667a4a680f72f723,Trial,56,0,t_sp_9,NULL,NULL,T,NULL,1077
1446582698,62c8827b6be04510667a4a680f72f723,Trial,44,0,t_b_1,NULL,NULL,P,NULL,1090
1446582698,62c8827b6be04510667a4a680f72f723,Trial,35,0,t_b_9,NULL,NULL,T,NULL,1133
1446582698,62c8827b6be04510667a4a680f72f723,Trial,36,0,t_b_18,NULL,NULL,T,NULL,1021
1446582698,62c8827b6be04510667a4a680f72f723,Trial,42,0,t_sp_9,NULL,NULL,P,NULL,1180
1446582698,62c8827b6be04510667a4a680f72f723,Trial,49,0,t_b_9,NULL,NULL,P,NULL,871
1446582698,62c8827b6be04510667a4a680f72f723,Trial,46,0,t_b_6,NULL,NULL,P,NULL,1531
1446582698,62c8827b6be04510667a4a680f72f723,Trial,57,0,t_sp_18,NULL,NULL,T,NULL,1093
1446582698,62c8827b6be04510667a4a680f72f723,Trial,52,0,t_sp_5,NULL,NULL,T,NULL,1073
1446582698,62c8827b6be04510667a4a680f72f723,Trial,54,0,t_sp_7,NULL,NULL,P,NULL,1267
1446582698,62c8827b6be04510667a4a680f72f723,Trial,51,0,t_sp_1,NULL,NULL,P,NULL,1050
1446582698,62c8827b6be04510667a4a680f72f723,Trial,32,0,t_b_6,NULL,NULL,P,NULL,1062
1446582698,62c8827b6be04510667a4a680f72f723,Trial,34,0,t_b_8,NULL,NULL,T,NULL,1416
1446582698,62c8827b6be04510667a4a680f72f723,Trial,43,0,t_sp_18,NULL,NULL,T,NULL,1118
1446582698,62c8827b6be04510667a4a680f72f723,Trial,33,0,t_b_7,NULL,NULL,T,NULL,1064
1446582698,62c8827b6be04510667a4a680f72f723,Trial,53,0,t_sp_6,NULL,NULL,P,NULL,937
1446582698,62c8827b6be04510667a4a680f72f723,Trial,38,0,t_sp_5,NULL,NULL,P,NULL,1161
1446582698,62c8827b6be04510667a4a680f72f723,Trial,44,0,t_b_1,NULL,NULL,P,NULL,1989
1446582698,62c8827b6be04510667a4a680f72f723,Trial,46,0,t_b_6,NULL,NULL,P,NULL,1564
1446582698,62c8827b6be04510667a4a680f72f723,Trial,50,0,t_b_18,NULL,NULL,T,NULL,1650
1446582698,62c8827b6be04510667a4a680f72f723,Trial,40,0,t_sp_7,NULL,NULL,T,NULL,1474
1446582698,62c8827b6be04510667a4a680f72f723,Trial,39,0,t_sp_6,NULL,NULL,P,NULL,1238
1446582698,62c8827b6be04510667a4a680f72f723,Trial,57,0,t_sp_18,NULL,NULL,T,NULL,1016
1446582698,62c8827b6be04510667a4a680f72f723,Trial,35,0,t_b_9,NULL,NULL,P,NULL,1414
1446582698,62c8827b6be04510667a4a680f72f723,Trial,42,0,t_sp_9,NULL,NULL,T,NULL,1273
1446582698,62c8827b6be04510667a4a680f72f723,Trial,49,0,t_b_9,NULL,NULL,T,NULL,1039
1446582698,62c8827b6be04510667a4a680f72f723,Trial,48,0,t_b_8,NULL,NULL,T,NULL,1346
1446582698,62c8827b6be04510667a4a680f72f723,Trial,45,0,t_b_5,NULL,NULL,P,NULL,1003
1446582698,62c8827b6be04510667a4a680f72f723,Trial,52,0,t_sp_5,NULL,NULL,P,NULL,1117
1446582698,62c8827b6be04510667a4a680f72f723,Trial,55,0,t_sp_8,NULL,NULL,P,NULL,1249
1446582698,62c8827b6be04510667a4a680f72f723,Trial,30,0,t_b_1,NULL,NULL,P,NULL,1386
1446582698,62c8827b6be04510667a4a680f72f723,Trial,37,0,t_sp_1,NULL,NULL,P,NULL,1259
1446582698,62c8827b6be04510667a4a680f72f723,Trial,31,0,t_b_5,NULL,NULL,T,NULL,998
1446582698,62c8827b6be04510667a4a680f72f723,Trial,36,0,t_b_18,NULL,NULL,T,NULL,950
1446582698,62c8827b6be04510667a4a680f72f723,Trial,47,0,t_b_7,NULL,NULL,P,NULL,940
1446582698,62c8827b6be04510667a4a680f72f723,Trial,56,0,t_sp_9,NULL,NULL,P,NULL,1195
1446582698,62c8827b6be04510667a4a680f72f723,Trial,41,0,t_sp_8,NULL,NULL,T,NULL,1270
1446582698,62c8827b6be04510667a4a680f72f723,Trial,33,0,t_b_7,NULL,NULL,P,NULL,1430
1446582698,62c8827b6be04510667a4a680f72f723,Trial,49,0,t_b_9,NULL,NULL,P,NULL,922
1446582698,62c8827b6be04510667a4a680f72f723,Trial,37,0,t_sp_1,NULL,NULL,P,NULL,1015
1446582698,62c8827b6be04510667a4a680f72f723,Trial,54,0,t_sp_7,NULL,NULL,P,NULL,898
1446582698,62c8827b6be04510667a4a680f72f723,Trial,39,0,t_sp_6,NULL,NULL,P,NULL,1473
1446582698,62c8827b6be04510667a4a680f72f723,Trial,51,0,t_sp_1,NULL,NULL,T,NULL,1682
1446582698,62c8827b6be04510667a4a680f72f723,Trial,32,0,t_b_6,NULL,NULL,P,NULL,1355
1446582698,62c8827b6be04510667a4a680f72f723,Trial,57,0,t_sp_18,NULL,NULL,T,NULL,1234
1446582698,62c8827b6be04510667a4a680f72f723,Trial,36,0,t_b_18,NULL,NULL,P,NULL,1053
1446582698,62c8827b6be04510667a4a680f72f723,Trial,41,0,t_sp_8,NULL,NULL,P,NULL,1595
1446582698,62c8827b6be04510667a4a680f72f723,Trial,35,0,t_b_9,NULL,NULL,P,NULL,1413
1446582698,62c8827b6be04510667a4a680f72f723,Trial,55,0,t_sp_8,NULL,NULL,P,NULL,952
1446582698,62c8827b6be04510667a4a680f72f723,Trial,31,0,t_b_5,NULL,NULL,P,NULL,1249
1446582698,62c8827b6be04510667a4a680f72f723,Trial,52,0,t_sp_5,NULL,NULL,T,NULL,1340
1446582698,62c8827b6be04510667a4a680f72f723,Trial,44,0,t_b_1,NULL,NULL,P,NULL,1101
1446582698,62c8827b6be04510667a4a680f72f723,Trial,53,0,t_sp_6,NULL,NULL,P,NULL,1072
1446582698,62c8827b6be04510667a4a680f72f723,Trial,45,0,t_b_5,NULL,NULL,P,NULL,831
1446582698,62c8827b6be04510667a4a680f72f723,Trial,34,0,t_b_8,NULL,NULL,P,NULL,1181
1446582698,62c8827b6be04510667a4a680f72f723,Trial,56,0,t_sp_9,NULL,NULL,P,NULL,1548
1446582698,62c8827b6be04510667a4a680f72f723,Trial,42,0,t_sp_9,NULL,NULL,T,NULL,1116
1446582698,62c8827b6be04510667a4a680f72f723,Trial,48,0,t_b_8,NULL,NULL,P,NULL,1213
1446582698,62c8827b6be04510667a4a680f72f723,Trial,40,0,t_sp_7,NULL,NULL,P,NULL,1284
1446582698,62c8827b6be04510667a4a680f72f723,Trial,38,0,t_sp_5,NULL,NULL,P,NULL,1054
1446582698,62c8827b6be04510667a4a680f72f723,Trial,50,0,t_b_18,NULL,NULL,T,NULL,1166
1446582698,62c8827b6be04510667a4a680f72f723,Trial,30,0,t_b_1,NULL,NULL,P,NULL,1135
1446582698,62c8827b6be04510667a4a680f72f723,Trial,43,0,t_sp_18,NULL,NULL,T,NULL,1421
1446582698,62c8827b6be04510667a4a680f72f723,Trial,47,0,t_b_7,NULL,NULL,P,NULL,1594
1446582698,62c8827b6be04510667a4a680f72f723,Trial,46,0,t_b_6,NULL,NULL,P,NULL,1106
1446582698,62c8827b6be04510667a4a680f72f723,Trial,39,0,t_sp_6,NULL,NULL,P,NULL,1147
1446582698,62c8827b6be04510667a4a680f72f723,Trial,49,0,t_b_9,NULL,NULL,P,NULL,886
1446582698,62c8827b6be04510667a4a680f72f723,Trial,43,0,t_sp_18,NULL,NULL,T,NULL,1337
1446582698,62c8827b6be04510667a4a680f72f723,Trial,46,0,t_b_6,NULL,NULL,P,NULL,1039
1446582698,62c8827b6be04510667a4a680f72f723,Trial,35,0,t_b_9,NULL,NULL,P,NULL,752
1446582698,62c8827b6be04510667a4a680f72f723,Trial,36,0,t_b_18,NULL,NULL,T,NULL,1272
1446582698,62c8827b6be04510667a4a680f72f723,Trial,57,0,t_sp_18,NULL,NULL,NULL,NULL,4479
1446582698,62c8827b6be04510667a4a680f72f723,Trial,47,0,t_b_7,NULL,NULL,P,NULL,1240
1446582698,62c8827b6be04510667a4a680f72f723,Trial,56,0,t_sp_9,NULL,NULL,P,NULL,1256
1446582698,62c8827b6be04510667a4a680f72f723,Trial,31,0,t_b_5,NULL,NULL,P,NULL,1252
1446582698,62c8827b6be04510667a4a680f72f723,Trial,52,0,t_sp_5,NULL,NULL,T,NULL,1430
1446582698,62c8827b6be04510667a4a680f72f723,Trial,34,0,t_b_8,NULL,NULL,P,NULL,886
1446582698,62c8827b6be04510667a4a680f72f723,Trial,41,0,t_sp_8,NULL,NULL,T,NULL,1445
1446582698,62c8827b6be04510667a4a680f72f723,Trial,54,0,t_sp_7,NULL,NULL,P,NULL,1518
1446582698,62c8827b6be04510667a4a680f72f723,Trial,38,0,t_sp_5,NULL,NULL,P,NULL,1591
1446582698,62c8827b6be04510667a4a680f72f723,Trial,50,0,t_b_18,NULL,NULL,T,NULL,1121
1446582698,62c8827b6be04510667a4a680f72f723,Trial,33,0,t_b_7,NULL,NULL,P,NULL,1342
1446582698,62c8827b6be04510667a4a680f72f723,Trial,53,0,t_sp_6,NULL,NULL,P,NULL,1159
1446582698,62c8827b6be04510667a4a680f72f723,Trial,55,0,t_sp_8,NULL,NULL,T,NULL,1652
1446582698,62c8827b6be04510667a4a680f72f723,Trial,45,0,t_b_5,NULL,NULL,P,NULL,1033
1446582698,62c8827b6be04510667a4a680f72f723,Trial,48,0,t_b_8,NULL,NULL,P,NULL,959
1446582698,62c8827b6be04510667a4a680f72f723,Trial,40,0,t_sp_7,NULL,NULL,T,NULL,1388
1446582698,62c8827b6be04510667a4a680f72f723,Trial,44,0,t_b_1,NULL,NULL,P,NULL,1172
1446582698,62c8827b6be04510667a4a680f72f723,Trial,37,0,t_sp_1,NULL,NULL,T,NULL,1528
1446582698,62c8827b6be04510667a4a680f72f723,Trial,32,0,t_b_6,NULL,NULL,P,NULL,831
1446582698,62c8827b6be04510667a4a680f72f723,Trial,30,0,t_b_1,NULL,NULL,P,NULL,829
1446582698,62c8827b6be04510667a4a680f72f723,Trial,42,0,t_sp_9,NULL,NULL,T,NULL,1022
1446582698,62c8827b6be04510667a4a680f72f723,Trial,51,0,t_sp_1,NULL,NULL,P,NULL,1112
# Columns below this comment are as follows:
# 1. Time results were received.
# 2. MD5 hash of participant's IP address.
# 3. Controller name.
# 4. Item number.
# 5. Element number.
# 6. Type.
# 7. Group.
# 8. Field name.
# 9. Field value.
1446582698,62c8827b6be04510667a4a680f72f723,Form,17,0,debrief,NULL,comments,somewhat difficult
1446582698,62c8827b6be04510667a4a680f72f723,Form,17,0,debrief,NULL,_REACTION_TIME_,9489
1446582698,62c8827b6be04510667a4a680f72f723,Form,18,0,exit2,NULL,randomfield,WF6ZSHoh
1446582698,62c8827b6be04510667a4a680f72f723,Form,18,0,exit2,NULL,worker_id,AVI7K876BV3QL
1446582698,62c8827b6be04510667a4a680f72f723,Form,18,0,exit2,NULL,identifier,WF6ZSHoh
1446582698,62c8827b6be04510667a4a680f72f723,Form,18,0,exit2,NULL,_REACTION_TIME_,22790
#
# Results on Tuesday November 03 2015 20:32:21 UTC.
# USER AGENT: Mozilla/5.0 (Windows NT 6.1; WOW64) AppleWebKit/537.36 (KHTML, like Gecko) Chrome/46.0.2490.80 Safari/537.36
# Design number was non-random = 0
#
# Columns below this comment are as follows:
# 1. Time results were received.
# 2. MD5 hash of participant's IP address.
# 3. Controller name.
# 4. Item number.
# 5. Element number.
# 6. Type.
# 7. Group.
# 8. Field name.
# 9. Field value.
1446582741,7abc929deaede22674901ddc3b92ce77,Form,2,0,intro,NULL,consentanswer,tpT,P
1446582741,7abc929deaede22674901ddc3b92ce77,Form,2,0,intro,NULL,_REACTION_TIME_,7086
1446582741,7abc929deaede22674901ddc3b92ce77,Form,3,0,questionnaire,NULL,write_something,
1446582741,7abc929deaede22674901ddc3b92ce77,Form,3,0,questionnaire,NULL,NatLang,eng
1446582741,7abc929deaede22674901ddc3b92ce77,Form,3,0,questionnaire,NULL,disorder,disorderno
1446582741,7abc929deaede22674901ddc3b92ce77,Form,3,0,questionnaire,NULL,_REACTION_TIME_,13511
1446582741,7abc929deaede22674901ddc3b92ce77,Form,4,0,headphones,NULL,headphonebrand,Panasonic
1446582741,7abc929deaede22674901ddc3b92ce77,Form,4,0,headphones,NULL,headphonemodel,RPHJE120K
1446582741,7abc929deaede22674901ddc3b92ce77,Form,4,0,headphones,NULL,headphoneyesno,headphoneyes
1446582741,7abc929deaede22674901ddc3b92ce77,Form,4,0,headphones,NULL,_REACTION_TIME_,39361
# Columns below this comment are as follows:
# 1. Time results were received.
# 2. MD5 hash of participant's IP address.
# 3. Controller name.
# 4. Item number.
# 5. Element number.
# 6. Type.
# 7. Group.
# 8. Question (NULL if none).
# 9. Answer.
# 10. Whether or not answer was correct (NULL if N/A).
# 11. Time taken to answer.
1446582741,7abc929deaede22674901ddc3b92ce77,Trial,22,0,pnt_b_1,NULL,&nbsp;&nbsp;&nbsp;&nbsp;click on the sound,P,NULL,3158
1446582741,7abc929deaede22674901ddc3b92ce77,Trial,25,0,pnt_sp_18,NULL,&nbsp;&nbsp;&nbsp;&nbsp;click on the sound,T,NULL,1750
1446582741,7abc929deaede22674901ddc3b92ce77,Trial,23,0,pnt_b_18,NULL,&nbsp;&nbsp;&nbsp;&nbsp;click on the sound,T,NULL,2338
1446582741,7abc929deaede22674901ddc3b92ce77,Trial,24,0,pnt_sp_1,NULL,&nbsp;&nbsp;&nbsp;&nbsp;click on the sound,P,NULL,2024
1446582741,7abc929deaede22674901ddc3b92ce77,Trial,27,0,pto_sp_18,NULL,&nbsp;&nbsp;&nbsp;&nbsp;click on the sound,T,NULL,1238
1446582741,7abc929deaede22674901ddc3b92ce77,Trial,28,0,pto_b_1,NULL,&nbsp;&nbsp;&nbsp;&nbsp;click on the sound,P,NULL,1181
1446582741,7abc929deaede22674901ddc3b92ce77,Trial,29,0,pto_b_18,NULL,&nbsp;&nbsp;&nbsp;&nbsp;click on the sound,T,NULL,1380
1446582741,7abc929deaede22674901ddc3b92ce77,Trial,26,0,pto_sp_1,NULL,&nbsp;&nbsp;&nbsp;&nbsp;click on the sound,P,NULL,1069
1446582741,7abc929deaede22674901ddc3b92ce77,Trial,46,0,t_b_6,NULL,NULL,P,NULL,1374
1446582741,7abc929deaede22674901ddc3b92ce77,Trial,51,0,t_sp_1,NULL,NULL,P,NULL,1232
1446582741,7abc929deaede22674901ddc3b92ce77,Trial,45,0,t_b_5,NULL,NULL,P,NULL,1264
1446582741,7abc929deaede22674901ddc3b92ce77,Trial,56,0,t_sp_9,NULL,NULL,T,NULL,1272
1446582741,7abc929deaede22674901ddc3b92ce77,Trial,54,0,t_sp_7,NULL,NULL,T,NULL,1175
1446582741,7abc929deaede22674901ddc3b92ce77,Trial,39,0,t_sp_6,NULL,NULL,P,NULL,1687
1446582741,7abc929deaede22674901ddc3b92ce77,Trial,57,0,t_sp_18,NULL,NULL,T,NULL,1280
1446582741,7abc929deaede22674901ddc3b92ce77,Trial,48,0,t_b_8,NULL,NULL,T,NULL,1365
1446582741,7abc929deaede22674901ddc3b92ce77,Trial,35,0,t_b_9,NULL,NULL,T,NULL,1193
1446582741,7abc929deaede22674901ddc3b92ce77,Trial,40,0,t_sp_7,NULL,NULL,T,NULL,1288
1446582741,7abc929deaede22674901ddc3b92ce77,Trial,50,0,t_b_18,NULL,NULL,T,NULL,1135
1446582741,7abc929deaede22674901ddc3b92ce77,Trial,34,0,t_b_8,NULL,NULL,T,NULL,967
1446582741,7abc929deaede22674901ddc3b92ce77,Trial,31,0,t_b_5,NULL,NULL,P,NULL,1206
1446582741,7abc929deaede22674901ddc3b92ce77,Trial,53,0,t_sp_6,NULL,NULL,P,NULL,2535
1446582741,7abc929deaede22674901ddc3b92ce77,Trial,52,0,t_sp_5,NULL,NULL,P,NULL,1343
1446582741,7abc929deaede22674901ddc3b92ce77,Trial,37,0,t_sp_1,NULL,NULL,P,NULL,1127
1446582741,7abc929deaede22674901ddc3b92ce77,Trial,32,0,t_b_6,NULL,NULL,P,NULL,1456
1446582741,7abc929deaede22674901ddc3b92ce77,Trial,36,0,t_b_18,NULL,NULL,T,NULL,1080
1446582741,7abc929deaede22674901ddc3b92ce77,Trial,30,0,t_b_1,NULL,NULL,P,NULL,1097
1446582741,7abc929deaede22674901ddc3b92ce77,Trial,44,0,t_b_1,NULL,NULL,P,NULL,935
1446582741,7abc929deaede22674901ddc3b92ce77,Trial,41,0,t_sp_8,NULL,NULL,T,NULL,1152
1446582741,7abc929deaede22674901ddc3b92ce77,Trial,38,0,t_sp_5,NULL,NULL,P,NULL,1281
1446582741,7abc929deaede22674901ddc3b92ce77,Trial,42,0,t_sp_9,NULL,NULL,T,NULL,1192
1446582741,7abc929deaede22674901ddc3b92ce77,Trial,49,0,t_b_9,NULL,NULL,T,NULL,1335
1446582741,7abc929deaede22674901ddc3b92ce77,Trial,55,0,t_sp_8,NULL,NULL,T,NULL,1224
1446582741,7abc929deaede22674901ddc3b92ce77,Trial,47,0,t_b_7,NULL,NULL,P,NULL,1928
1446582741,7abc929deaede22674901ddc3b92ce77,Trial,43,0,t_sp_18,NULL,NULL,T,NULL,1677
1446582741,7abc929deaede22674901ddc3b92ce77,Trial,33,0,t_b_7,NULL,NULL,P,NULL,1584
1446582741,7abc929deaede22674901ddc3b92ce77,Trial,43,0,t_sp_18,NULL,NULL,T,NULL,1164
1446582741,7abc929deaede22674901ddc3b92ce77,Trial,32,0,t_b_6,NULL,NULL,P,NULL,1485
1446582741,7abc929deaede22674901ddc3b92ce77,Trial,54,0,t_sp_7,NULL,NULL,P,NULL,2015
1446582741,7abc929deaede22674901ddc3b92ce77,Trial,30,0,t_b_1,NULL,NULL,P,NULL,1104
